sep=,
DeviceTag:,Xsens DOT
FirmwareVersion:,2.1.0
AppVersion:,2022.0.0
StartTime: ,2022-08-15_19:20:47_000 EDT
© Xsens Technologies B. V. 2005-2022

PacketCounter,SampleTimeFine,Euler_X,Euler_Y,Euler_Z,Acc_X,Acc_Y,Acc_Z,Gyr_X,Gyr_Y,Gyr_Z
0,763504828,100.43290710449219,32.26330947875977,-46.22824096679688,0.00000000000000,0.00000000000000,0.00000000000000,0.00000000000000,0.00000000000000,0.00000000000000
1,763513161,100.51971435546875,32.16692352294922,-45.50897979736328,-8.80902671813965,5.93174648284912,0.33031022548676,-36.05314254760742,74.13458251953125,-2.53508138656616
2,763521494,100.60568237304688,32.10939788818359,-44.77709579467773,-9.75101089477539,5.79444742202759,0.55894905328751,-36.68485641479492,74.80863952636719,-6.89513778686523
3,763529827,100.76550292968750,32.04419326782227,-44.03902816772461,-10.52721786499023,6.86890459060669,1.34641420841217,-28.31275749206543,75.42185974121094,-6.85361528396606
4,763538160,100.83502960205078,32.05817413330078,-43.31525802612305,-12.10520648956299,5.30042552947998,0.84134650230408,-38.11347198486328,72.33484649658203,-15.74934196472168
5,763546493,101.00480651855469,32.06605529785156,-42.55582427978516,-12.39604473114014,5.87188100814819,0.66124099493027,-28.45792007446289,75.87744140625000,-16.18762779235840
6,763554826,101.13755035400391,32.11983871459961,-41.86804580688477,-14.60507488250732,5.48864746093750,1.91106784343719,-28.29444694519043,67.71873474121094,-20.06152915954590
7,763563159,101.27358245849609,32.22102737426758,-41.12664031982422,-14.15352725982666,5.05069684982300,-0.24425458908081,-31.50254631042480,71.73697662353516,-27.17389488220215
8,763571492,101.42443084716797,32.35995864868164,-40.44087982177734,-15.09028148651123,4.83054447174072,0.67975604534149,-26.23766708374023,65.25870513916016,-30.32549095153809
9,763579825,101.65010833740234,32.52578735351562,-39.81268692016602,-15.30084609985352,5.32701253890991,1.23862683773041,-13.81558036804199,58.57732009887695,-32.85021209716797
10,763588158,101.85587310791016,32.74181747436523,-39.21040344238281,-15.73094654083252,4.70167922973633,0.52232360839844,-14.66905021667480,54.64621353149414,-38.05789184570312
11,763596491,102.14942932128906,32.95158767700195,-38.61802673339844,-15.77324867248535,5.26695871353149,0.78854829072952,-3.78520894050598,53.40305328369141,-37.67061614990234
12,763604824,102.38465881347656,33.20199203491211,-38.09469985961914,-16.79457855224609,4.22800397872925,1.04208505153656,-6.43721151351929,45.37664794921875,-40.81409072875977
13,763613157,102.66004180908203,33.44976425170898,-37.57009887695312,-16.15777969360352,4.62231826782227,0.40731361508369,-1.99445927143097,45.12499237060547,-41.06036758422852
14,763621490,102.84836578369141,33.69068145751953,-37.17365264892578,-16.70174980163574,5.67064332962036,2.46805429458618,-4.09951639175415,32.61853027343750,-37.20412063598633
15,763629823,102.87630462646484,34.00428009033203,-36.80989456176758,-13.06583786010742,4.73585844039917,0.84190261363983,-21.41919517517090,27.18911170959473,-45.38900756835938
16,763638156,103.05700683593750,34.34758758544922,-36.33431243896484,-9.06241226196289,5.03139591217041,1.46457564830780,-10.76956844329834,37.10989379882812,-50.99368667602539
17,763646489,103.36090087890625,34.73612594604492,-35.75953674316406,-8.02972602844238,5.84715461730957,2.76000905036926,-3.09616136550903,44.88018798828125,-59.00244522094727
18,763654822,103.75538635253906,35.22688293457031,-35.02678298950195,-6.06687927246094,6.56010055541992,1.57821226119995,-3.47060179710388,56.57675933837891,-74.39852905273438
19,763663155,104.28183746337891,35.75664901733398,-34.14877700805664,-3.94945907592773,7.60642099380493,1.18675696849823,1.54387521743774,68.05500793457031,-83.08950042724609
20,763671488,104.86037445068359,36.28593063354492,-33.19142913818359,-2.83719849586487,8.54142856597900,1.20373535156250,1.45776104927063,74.29740905761719,-85.12130737304688
21,763679821,105.47145843505859,36.77317810058594,-32.15426635742188,-2.23481869697571,10.02571487426758,1.14325761795044,-1.20872461795807,81.45436859130859,-83.22826385498047
22,763688154,106.02881622314453,37.21475219726562,-31.10896873474121,-2.59301972389221,10.87886047363281,1.37137043476105,-9.01006412506104,82.38662719726562,-78.48983001708984
23,763696487,106.56697082519531,37.59209442138672,-30.05902481079102,-3.56974864006042,12.23043251037598,3.07209467887878,-12.40979576110840,83.58210754394531,-72.18009948730469
24,763704820,107.01492309570312,37.89226531982422,-29.05408859252930,-6.65607500076294,13.64823532104492,5.20378303527832,-20.47683143615723,81.23472595214844,-62.35089111328125
25,763713153,107.29523468017578,38.13352966308594,-28.12158584594727,-9.89919662475586,13.98791313171387,5.59642839431763,-35.73301696777344,75.92403411865234,-54.29896163940430
26,763721486,107.42111968994141,38.33371353149414,-27.27735137939453,-11.71789646148682,13.37930202484131,5.82805585861206,-47.99951934814453,69.13675689697266,-47.00396347045898
27,763729819,107.41845703125000,38.51103210449219,-26.46900939941406,-11.79630565643311,11.86425209045410,4.69089174270630,-61.05778121948242,66.36302947998047,-43.68374633789062
28,763738152,107.34975433349609,38.68066787719727,-25.67383384704590,-10.94718170166016,9.86461067199707,3.38382792472839,-68.17658996582031,65.44612884521484,-42.05144119262695
29,763746485,107.28118896484375,38.84088897705078,-24.87968826293945,-9.09110260009766,8.06907463073730,1.85037982463837,-68.34806060791016,65.44495391845703,-41.10223388671875
30,763754818,107.25485992431641,38.98018264770508,-24.05867958068848,-7.91692018508911,6.30064201354980,0.86939191818237,-65.49992370605469,68.46852111816406,-39.34820938110352
31,763763151,107.32598114013672,39.10603332519531,-23.17622756958008,-7.38110351562500,5.56392049789429,0.48827424645424,-58.57273864746094,74.39166259765625,-39.20779037475586
32,763771484,107.46844482421875,39.21692657470703,-22.25660133361816,-7.70800685882568,5.14048910140991,0.24506375193596,-53.00092315673828,78.02146911621094,-38.63202667236328
33,763779817,107.68292999267578,39.31549072265625,-21.28588104248047,-7.85090351104736,5.40710353851318,0.17291539907455,-48.44785690307617,82.62847137451172,-39.13866043090820
34,763788150,107.90517425537109,39.40226364135742,-20.29206275939941,-8.12577438354492,5.40938806533813,0.07605671882629,-49.42030715942383,84.84269714355469,-38.72415924072266
35,763796483,108.15704345703125,39.48649215698242,-19.25605964660645,-7.77967643737793,5.78067302703857,-0.08896845579147,-49.17679214477539,88.50542449951172,-39.67924499511719
36,763804816,108.35953521728516,39.55815124511719,-18.21562194824219,-8.07065105438232,6.20606851577759,0.10819059610367,-55.57649230957031,89.10375976562500,-38.69839096069336
37,763813149,108.54232025146484,39.62254333496094,-17.18321228027344,-7.99830007553101,6.63226413726807,-0.26428446173668,-57.47994995117188,88.34397888183594,-38.17738723754883
38,763821482,108.65151214599609,39.65956878662109,-16.16746520996094,-8.27248477935791,7.14792680740356,0.26261514425278,-65.11700439453125,87.76891326904297,-34.77516174316406
39,763829815,108.72184753417969,39.69469833374023,-15.14577198028564,-8.29588985443115,6.69375753402710,0.07493253052235,-70.26560211181641,88.37152862548828,-34.58233261108398
40,763838148,108.71485137939453,39.70534515380859,-14.15099430084229,-8.52221298217773,6.61108970642090,0.85198271274567,-77.52449035644531,86.90893554687500,-31.05253028869629
41,763846481,108.64923858642578,39.71900177001953,-13.17102050781250,-8.74843502044678,5.31628370285034,0.33503890037537,-83.46809387207031,85.39862060546875,-31.15954780578613
42,763854814,108.51538085937500,39.72067260742188,-12.23693275451660,-8.68881034851074,5.25128698348999,0.17737469077110,-88.15357208251953,81.88273620605469,-28.29442787170410
43,763863147,108.30997467041016,39.72338485717773,-11.37646770477295,-8.92271804809570,4.37228441238403,-0.11288778483868,-91.07649230957031,75.57256317138672,-25.76415634155273
44,763871480,108.09493255615234,39.71326446533203,-10.58190059661865,-8.89262390136719,4.07483673095703,-0.16332273185253,-87.17357635498047,70.37255096435547,-22.12524223327637
45,763879813,107.80184936523438,39.69366455078125,-9.84697628021240,-8.69906234741211,3.69037890434265,-0.44483336806297,-91.96950531005859,65.49780273437500,-19.30292892456055
46,763888146,107.45769500732422,39.66300582885742,-9.19563484191895,-8.50809001922607,2.87224912643433,-0.75543391704559,-91.66090393066406,58.66958236694336,-15.34103870391846
47,763896479,107.13239288330078,39.63480758666992,-8.59702491760254,-8.15661621093750,2.63721084594727,-0.70364111661911,-85.32287597656250,54.12464141845703,-13.58189296722412
48,763904812,106.74635314941406,39.59455108642578,-8.05384254455566,-7.85050630569458,2.52885937690735,-0.93610626459122,-88.33473205566406,49.74402236938477,-10.37729167938232
49,763913145,106.34928894042969,39.56047821044922,-7.55241155624390,-7.77450847625732,1.83980512619019,-0.79481428861618,-86.44129180908203,45.84714508056641,-9.91727638244629
50,763921478,105.96014404296875,39.53936386108398,-7.06847238540649,-7.35009622573853,1.86753678321838,-0.50900995731354,-84.13225555419922,43.93899917602539,-10.65611934661865
51,763929811,105.52702331542969,39.51413726806641,-6.67369079589844,-7.66482448577881,1.48742187023163,-0.29270148277283,-82.58122253417969,36.28434371948242,-7.36811542510986
52,763938144,105.09072875976562,39.51121902465820,-6.31793165206909,-7.38351106643677,0.92791450023651,-0.19208325445652,-79.97424316406250,32.14911270141602,-8.72590637207031
53,763946477,104.64933776855469,39.51511383056641,-5.98660564422607,-7.06032562255859,0.70695072412491,-0.27557176351547,-78.72370147705078,29.75110816955566,-8.95253849029541
54,763954810,104.20599365234375,39.53637313842773,-5.69687891006470,-6.91538190841675,0.45322415232658,-0.25939029455185,-75.78591156005859,25.55881118774414,-9.78218364715576
55,763963143,103.80024719238281,39.55607604980469,-5.49235868453979,-6.93368387222290,0.67116469144821,0.61641746759415,-64.77441406250000,18.06903266906738,-7.23938083648682
56,763971476,103.40780639648438,39.56378936767578,-5.34680700302124,-6.82830286026001,1.18861484527588,1.46515107154846,-58.67414474487305,13.14868640899658,-4.43371009826660
57,763979809,102.99521636962891,39.54573440551758,-5.29344892501831,-7.37492847442627,1.18252503871918,1.51117265224457,-54.04525375366211,5.52427434921265,0.35341331362724
58,763988142,102.60389709472656,39.51878738403320,-5.25842571258545,-7.38778829574585,0.91276383399963,1.27681994438171,-50.08961486816406,4.09986209869385,1.80582034587860
59,763996475,102.22697448730469,39.48621749877930,-5.17888307571411,-7.52675390243530,0.47685024142265,0.41847351193428,-51.75819396972656,8.30862426757812,1.86837077140808
60,764004808,101.87250518798828,39.44948577880859,-5.04028415679932,-7.54171943664551,0.50986635684967,0.30522176623344,-53.56363677978516,13.75125789642334,1.26333594322205
61,764013141,101.58890533447266,39.40060424804688,-4.85639142990112,-7.49763250350952,1.11706459522247,0.83766853809357,-48.50765228271484,18.10537338256836,1.64849746227264
62,764021474,101.30916595458984,39.32564544677734,-4.68008804321289,-8.15777969360352,2.17003440856934,1.26707327365875,-47.44246292114258,18.03903198242188,4.93949890136719
63,764029807,101.00897216796875,39.22145843505859,-4.56021165847778,-9.03059959411621,2.50399756431580,1.62554943561554,-45.58300399780273,13.61467170715332,9.74804210662842
64,764038140,100.74372100830078,39.11866760253906,-4.39355134963989,-9.51750183105469,2.48823428153992,1.81330716609955,-44.91406631469727,17.82599449157715,8.82408428192139
65,764046473,100.43337249755859,39.03075790405273,-4.20839548110962,-10.68496799468994,2.35331058502197,1.79373264312744,-51.70611190795898,19.11694145202637,6.56972360610962
66,764054806,100.13941192626953,39.00410842895508,-3.97104907035828,-11.49646377563477,1.79789710044861,2.02386951446533,-53.66082763671875,22.56727027893066,-1.43506741523743
67,764063139,99.86174011230469,39.02205657958984,-3.68653368949890,-12.72248554229736,1.91966950893402,1.97174119949341,-55.26560592651367,26.01937103271484,-7.08727693557739
68,764071472,99.64933013916016,39.11264038085938,-3.28031992912292,-13.39430904388428,0.99536937475204,1.19683897495270,-56.65990447998047,35.72684478759766,-17.48063659667969
69,764079805,99.48580932617188,39.21968078613281,-2.81824111938477,-14.36096286773682,1.83116936683655,0.58357495069504,-55.09918212890625,40.48118209838867,-20.44066047668457
70,764088138,99.37052917480469,39.34720230102539,-2.35912394523621,-15.47500228881836,1.71682262420654,0.57063543796539,-49.17418670654297,39.78565979003906,-22.71205139160156
71,764096471,99.38914489746094,39.48530578613281,-1.85486876964569,-16.37644767761230,2.92944908142090,0.99764072895050,-36.63936233520508,43.68961715698242,-24.31382751464844
72,764104804,99.36823272705078,39.64981079101562,-1.37517344951630,-17.53462600708008,2.26256418228149,0.20652814209461,-39.62896728515625,40.83172988891602,-27.03981018066406
73,764113137,99.51553344726562,39.84621429443359,-0.84065824747086,-17.53912925720215,2.39610886573792,-1.28222942352295,-23.79088401794434,45.00700378417969,-31.97045707702637
74,764121470,99.71611785888672,40.02674865722656,-0.36393827199936,-18.83525848388672,3.97013592720032,-0.35444888472557,-13.10967636108398,39.85257339477539,-29.31647682189941
75,764129803,99.92794799804688,40.24825668334961,0.09279680997133,-20.02188491821289,4.93283700942993,-0.36221456527710,-10.36802577972412,37.02052688598633,-33.65879440307617
76,764138136,100.11408996582031,40.52244186401367,0.52214759588242,-20.54219627380371,5.04082584381104,-0.84859406948090,-11.50274181365967,33.19181442260742,-39.53408050537109
77,764146469,100.25222015380859,40.85901641845703,0.92210447788239,-19.97173309326172,5.04541349411011,-1.05733549594879,-15.17183971405029,28.90063476562500,-46.81754684448242
78,764154802,100.52623748779297,41.29123687744141,1.37553238868713,-18.22286033630371,4.30618238449097,-0.97045421600342,-3.32668709754944,31.26320457458496,-58.70449447631836
79,764163135,100.73423004150391,41.74363327026367,1.81186354160309,-16.30789184570312,6.05096673965454,0.80167984962463,-10.20255088806152,28.74155616760254,-61.22018814086914
80,764171468,100.92031097412109,42.21659851074219,2.17633414268494,-15.74864006042480,4.82498311996460,1.95570051670074,-7.38614892959595,21.54376792907715,-62.13783645629883
81,764179801,101.07613372802734,42.69072341918945,2.48098325729370,-14.44508075714111,5.94805097579956,1.62348246574402,-6.43314027786255,15.84744071960449,-61.62919235229492
82,764188134,100.93110656738281,43.09610366821289,2.66325902938843,-12.39217662811279,7.01233673095703,2.02038168907166,-32.74870300292969,6.71954536437988,-51.09165191650391
83,764196467,100.67338562011719,43.52335357666016,2.61976337432861,-11.17055702209473,5.71183395385742,4.13097858428955,-27.80235862731934,-13.11803531646729,-50.27991485595703
84,764204800,100.56210327148438,43.94344711303711,2.62474894523621,-10.14792633056641,5.26329040527344,3.63887023925781,-14.22351551055908,-8.58632183074951,-49.91596221923828
85,764213133,100.48399353027344,44.30488586425781,2.74663925170898,-10.56893920898438,7.31720638275146,0.10376534610987,-20.01082992553711,2.62355637550354,-45.19029235839844
86,764221466,100.54736328125000,44.57986831665039,2.81862664222717,-12.43918037414551,8.06706237792969,4.10720109939575,1.11128747463226,0.32441741228104,-33.85838699340820
87,764229799,100.67834472656250,44.82564926147461,2.95686841011047,-11.32103443145752,8.25565719604492,0.95214122533798,3.59323239326477,6.37924432754517,-31.79285430908203
88,764238132,100.73746490478516,44.98120498657227,2.93187355995178,-12.53561878204346,9.28141880035400,4.94050455093384,8.76940917968750,-5.26841545104980,-18.24098205566406
89,764246465,100.76684570312500,45.14739227294922,2.94079828262329,-13.29555225372314,8.84357547760010,3.27495193481445,2.31443905830383,-2.75593900680542,-20.36381149291992
90,764254798,100.61569213867188,45.33594131469727,2.94646811485291,-13.20094394683838,8.55421829223633,-0.01211079582572,-19.06059074401855,-3.43384671211243,-22.62463378906250
91,764263131,100.46015930175781,45.54841995239258,2.87608432769775,-12.23729896545410,8.83277702331543,2.29558372497559,-13.09959030151367,-10.26690864562988,-24.61519432067871
92,764271464,100.37939453125000,45.81370925903320,2.82861471176147,-10.97807502746582,7.88929700851440,2.40100026130676,-6.04760265350342,-9.37530517578125,-30.89576339721680
93,764279797,100.34329986572266,46.10805892944336,2.85432124137878,-10.65501117706299,7.95674896240234,3.00739097595215,-7.00188779830933,-4.02092647552490,-35.76253128051758
94,764288130,100.33454895019531,46.43011093139648,2.95087504386902,-10.34590435028076,7.61656522750854,2.52793669700623,-9.85199260711670,1.24338090419769,-39.77154159545898
95,764296463,100.36765289306641,46.75745391845703,3.07965183258057,-9.87056350708008,7.45124435424805,2.59371519088745,-7.70897340774536,3.60926842689514,-41.18203735351562
96,764304796,100.44933319091797,47.11494064331055,3.31080222129822,-9.55109405517578,6.51204156875610,1.51209533214569,-10.88591670989990,11.18182563781738,-45.93627548217773
97,764313129,100.54586029052734,47.47479629516602,3.52330541610718,-9.83244514465332,7.02477216720581,1.75973927974701,-7.61248922348022,9.36067676544189,-46.24369812011719
98,764321462,100.68306732177734,47.85533142089844,3.82782411575317,-9.59784126281738,6.50975656509399,1.27873790264130,-10.96709537506104,16.08330917358398,-49.74402236938477
99,764329795,100.83595275878906,48.24571609497070,4.15116500854492,-9.63499736785889,6.50504493713379,1.12477421760559,-10.96584224700928,16.95837402343750,-51.49715042114258
100,764338128,101.01681518554688,48.66328811645508,4.55152273178101,-9.06057929992676,6.25621986389160,1.12666094303131,-14.67692565917969,22.09092712402344,-55.57717514038086
101,764346461,101.24213409423828,49.09887695312500,5.02456808090210,-9.07057094573975,5.84447956085205,0.30323424935341,-16.18285560607910,26.76082229614258,-59.12667465209961
102,764354794,101.47929382324219,49.54857635498047,5.46809911727905,-8.78493595123291,5.92237758636475,0.67036432027817,-12.32594966888428,23.68958091735840,-60.08143997192383
103,764363127,101.74742126464844,50.00791549682617,5.99798107147217,-8.20280838012695,4.92724752426147,0.18972572684288,-16.83121299743652,29.34537124633789,-62.88980865478516
104,764371460,102.02843475341797,50.42345809936523,6.45705366134644,-8.73993110656738,5.31325054168701,1.19302034378052,-9.03880786895752,24.52877616882324,-56.41063308715820
105,764379793,102.31981658935547,50.85079956054688,6.99890041351318,-7.77690792083740,4.95163249969482,1.55111324787140,-15.76201534271240,29.71917724609375,-59.45693588256836
106,764388126,102.53792572021484,51.25397872924805,7.44587182998657,-7.87486076354980,5.59065771102905,1.47017812728882,-15.96742820739746,22.81919670104980,-54.86085510253906
107,764396459,102.76490783691406,51.67474746704102,7.97413301467896,-6.39601230621338,5.00434589385986,1.09835398197174,-22.80703926086426,27.69931411743164,-58.54983520507812
108,764404792,103.02536773681641,52.04714965820312,8.47122573852539,-6.13387632369995,5.30699205398560,1.45048260688782,-16.09222030639648,26.24415969848633,-52.14910507202148
109,764413125,103.23653411865234,52.38049316406250,8.93353271484375,-6.26377964019775,5.61639690399170,2.39033079147339,-18.95816993713379,24.23929023742676,-47.31012725830078
110,764421458,103.35733032226562,52.67804718017578,9.37182521820068,-6.38536357879639,5.37009859085083,1.81412160396576,-27.67815208435059,23.23357200622559,-42.48654937744141
111,764429791,103.43668365478516,52.95912170410156,9.82368469238281,-6.05737733840942,4.82803916931152,1.20156741142273,-34.13527679443359,24.28484153747559,-41.03564453125000
112,764438124,103.50532531738281,53.22743988037109,10.29891300201416,-5.58452749252319,4.62364625930786,0.58054214715958,-37.79454040527344,26.10868644714355,-39.67680740356445
113,764446457,103.54898071289062,53.48416137695312,10.76906871795654,-5.15845823287964,5.03102874755859,0.90591704845428,-40.48535156250000,25.75820732116699,-38.45915603637695
114,764454790,103.56270599365234,53.71208190917969,11.21589660644531,-5.02177858352661,5.22010517120361,1.51698935031891,-41.94505310058594,24.82678794860840,-34.44423294067383
115,764463123,103.54211425781250,53.92910385131836,11.69180297851562,-4.91380310058594,4.80820512771606,1.77646362781525,-49.02080917358398,26.89452171325684,-33.84577560424805
116,764471456,103.53507232666016,54.16687393188477,12.27475929260254,-4.30136489868164,4.27536010742188,0.89825636148453,-57.90774536132812,33.55168151855469,-37.76228713989258
117,764479789,103.51835632324219,54.39587402343750,12.89624118804932,-4.06638479232788,4.09190559387207,1.10463547706604,-63.01354217529297,36.12881469726562,-37.53326416015625
118,764488122,103.48464202880859,54.62858963012695,13.56619644165039,-3.86331367492676,3.99819302558899,1.50833535194397,-69.94356536865234,39.16057968139648,-38.46575546264648
119,764496455,103.44197845458984,54.88612747192383,14.31397342681885,-3.62892341613770,3.65957927703857,1.49495792388916,-78.86076354980469,43.38698577880859,-42.74000167846680
120,764504788,103.39398193359375,55.16328430175781,15.11826229095459,-3.41860532760620,2.96062374114990,1.27306461334229,-85.28153991699219,46.39254379272461,-45.61362075805664
121,764513121,103.37323760986328,55.44917678833008,15.99959754943848,-3.38989353179932,2.19032406806946,0.73705977201462,-89.90267181396484,50.84730529785156,-47.94186782836914
122,764521454,103.38770294189453,55.74783706665039,16.94893455505371,-3.77126431465149,1.78479611873627,0.20345811545849,-92.70039367675781,54.61346054077148,-50.18838500976562
123,764529787,103.43733215332031,56.05515289306641,17.96751213073730,-4.13323259353638,1.36263632774353,-0.61156451702118,-95.72088623046875,58.32482910156250,-52.39987564086914
124,764538120,103.52537536621094,56.35863494873047,19.05199432373047,-4.61058330535889,0.59530103206635,-0.98914527893066,-98.04488372802734,62.12231445312500,-52.92102432250977
125,764546453,103.71757507324219,56.67296218872070,20.27617645263672,-4.25011825561523,-0.70554715394974,-2.59321689605713,-99.90486907958984,70.16803741455078,-56.17513275146484
126,764554786,104.05524444580078,56.96049880981445,21.64260292053223,-4.60259532928467,-1.71647787094116,-2.82359814643860,-97.16119384765625,79.11409759521484,-55.46595382690430
127,764563119,104.51132202148438,57.21549606323242,23.07723808288574,-5.93520164489746,-2.02821373939514,-3.06235146522522,-90.25861358642578,83.32579040527344,-53.36231613159180
128,764571452,104.99269866943359,57.43631744384766,24.45408630371094,-6.96044635772705,-1.29183995723724,-2.28285598754883,-81.76926422119141,79.73404693603516,-48.97029113769531
129,764579785,105.39086151123047,57.61111068725586,25.67458343505859,-8.51022148132324,-0.65660214424133,-0.58130782842636,-76.23962402343750,70.65969848632812,-41.27572250366211
130,764588118,105.77796936035156,57.77943420410156,26.81989288330078,-9.31024074554443,-0.18686014413834,-0.06601360440254,-70.18022155761719,65.58295440673828,-39.61011505126953
131,764596451,106.18331146240234,57.93540573120117,27.89423561096191,-9.56742095947266,1.50887477397919,0.86909574270248,-60.97779083251953,61.00756454467773,-37.51055908203125
132,764604784,106.44203186035156,58.08692932128906,28.76418495178223,-10.69743061065674,2.93921375274658,2.16809701919556,-57.95369720458984,48.19369888305664,-33.61689758300781
133,764613117,106.48868560791016,58.26125335693359,29.38455963134766,-11.60451126098633,3.64281702041626,2.54919910430908,-58.12204360961914,31.97071266174316,-31.61055946350098
134,764621450,106.41936492919922,58.44596481323242,29.89589118957520,-11.36404418945312,4.05310058593750,2.04359388351440,-61.02030944824219,24.85791397094727,-30.79717636108398
135,764629783,106.33763885498047,58.63976287841797,30.47778701782227,-11.38449668884277,3.33460140228271,0.07878776639700,-69.82855987548828,28.62876701354980,-33.21790313720703
136,764638116,106.20941925048828,58.83443832397461,30.97307014465332,-12.12195491790771,2.64839172363281,-0.75919175148010,-66.64964294433594,23.28384780883789,-31.70297241210938
137,764646449,106.16803741455078,59.03781127929688,31.51310920715332,-11.90680789947510,2.80812382698059,-1.18690836429596,-60.94501876831055,25.56133460998535,-33.18766403198242
138,764654782,106.14420318603516,59.22803497314453,32.05693817138672,-11.92983722686768,3.70301890373230,-1.01188623905182,-59.34202194213867,26.06370735168457,-31.66240119934082
139,764663115,105.82901000976562,59.42847442626953,32.34778976440430,-11.69152069091797,4.36128377914429,0.31920754909515,-68.30157470703125,10.71566581726074,-28.65746307373047
140,764671448,105.30960845947266,59.61133575439453,32.47102737426758,-10.94366359710693,4.39746856689453,0.22528295218945,-75.53063964843750,1.55814814567566,-23.78375625610352
141,764679781,104.75315093994141,59.78561782836914,32.62303543090820,-9.80121040344238,4.39248275756836,0.56299358606339,-82.99094390869141,3.71434450149536,-23.00750923156738
142,764688114,104.16159057617188,59.93236160278320,32.77011489868164,-9.66120243072510,4.04570579528809,-0.28881618380547,-86.71811676025391,4.43539190292358,-19.69119644165039
143,764696447,103.49295806884766,60.08811187744141,32.95545578002930,-8.94046497344971,3.07144474983215,-0.32511860132217,-99.95629119873047,6.55010700225830,-21.43610000610352
144,764704780,102.82857513427734,60.21997451782227,33.15319442749023,-9.40584278106689,2.36165070533752,-1.46152651309967,-100.76464843750000,8.11894130706787,-18.72803306579590
145,764713113,102.24881744384766,60.33648300170898,33.43276596069336,-9.13740825653076,1.78010463714600,-0.45146569609642,-99.17369842529297,13.44203472137451,-17.68838882446289
146,764721446,101.84868621826172,60.44866561889648,33.87537384033203,-9.09050369262695,2.32840514183044,-0.92636567354202,-94.66224670410156,23.09278869628906,-19.07335662841797
147,764729779,101.31123352050781,60.56628799438477,34.21565246582031,-8.93270301818848,3.18168425559998,0.32798045873642,-100.49517822265625,17.08355140686035,-18.49274444580078
148,764738112,100.65992736816406,60.66296768188477,34.46497344970703,-8.41835880279541,2.69178724288940,-0.08351747691631,-104.68400573730469,12.42343807220459,-14.81756114959717
149,764746445,100.09415435791016,60.74491119384766,34.81310653686523,-8.07682991027832,2.49553442001343,-0.49562710523605,-104.79256439208984,18.56774330139160,-13.78529930114746
150,764754778,99.61489868164062,60.83436584472656,35.27625274658203,-8.06594562530518,1.79938960075378,-0.70151853561401,-106.48941040039062,25.11408042907715,-15.64947986602783
151,764763111,99.36184692382812,60.93998718261719,35.97756576538086,-7.79964780807495,2.10104203224182,-1.25184190273285,-104.34990692138672,38.52009582519531,-19.88382530212402
152,764771444,98.97966766357422,61.06641387939453,36.56980133056641,-8.27642250061035,2.90320253372192,0.56565922498703,-108.48130035400391,31.81598854064941,-21.10241699218750
153,764779777,98.56193542480469,61.20012664794922,37.18452835083008,-8.09688091278076,2.99134421348572,-0.04554747790098,-115.20169830322266,32.96746063232422,-21.72349548339844
154,764788110,98.25634002685547,61.34198379516602,37.91780853271484,-7.89977169036865,3.49556303024292,0.80912864208221,-114.30288696289062,39.57186126708984,-23.46022796630859
155,764796443,97.98257446289062,61.47761917114258,38.74438858032227,-8.55495357513428,3.67345643043518,0.04470157995820,-120.40694427490234,44.91503143310547,-23.45368003845215
156,764804776,97.69010925292969,61.64409637451172,39.65383911132812,-8.64030933380127,3.45539259910583,0.35587593913078,-131.51982116699219,48.98840713500977,-27.50745201110840
157,764813109,97.46581268310547,61.79993438720703,40.66636276245117,-8.92515945434570,4.12623119354248,-0.25610101222992,-134.39414978027344,54.80434417724609,-26.56798934936523
158,764821442,97.18190765380859,61.96815490722656,41.72249603271484,-9.13815879821777,4.30520439147949,0.18185320496559,-146.32313537597656,56.87227630615234,-28.08193588256836
159,764829775,96.93347167968750,62.12361145019531,42.87316894531250,-8.84960365295410,4.59489011764526,-0.35233306884766,-152.24182128906250,62.17082595825195,-27.09535980224609
160,764838108,96.64240264892578,62.26683425903320,44.07511138916016,-8.63674640655518,4.44435977935791,-0.98218923807144,-162.96942138671875,65.00247955322266,-25.65184211730957
161,764846441,96.36541748046875,62.37675857543945,45.31331253051758,-8.91563987731934,4.71268892288208,-0.84124439954758,-165.29943847656250,67.27719879150391,-21.37398529052734
162,764854774,95.98675537109375,62.45502471923828,46.49444961547852,-9.59667778015137,3.90609574317932,-1.18360638618469,-171.54972839355469,64.43138885498047,-16.85737037658691
163,764863107,95.66683959960938,62.50394821166992,47.72574234008789,-9.90157890319824,2.48962736129761,-1.34711503982544,-169.88404846191406,67.55077362060547,-13.40418434143066
164,764871440,95.63124084472656,62.54590225219727,49.28514480590820,-9.97544384002686,2.19896245002747,-1.87162399291992,-170.75440979003906,85.64673614501953,-14.13763236999512
165,764879773,95.46228790283203,62.55329132080078,50.75984191894531,-10.75626564025879,1.73953437805176,-1.33311378955841,-177.80279541015625,81.28796386718750,-9.23612594604492
166,764888106,95.55810546875000,62.51976776123047,52.46759414672852,-10.66928386688232,1.89047312736511,-2.03048253059387,-170.82896423339844,94.63361358642578,-5.53243780136108
167,764896439,95.69772338867188,62.45651245117188,54.26119232177734,-11.02788162231445,2.42430043220520,-2.05252647399902,-174.59866333007812,99.91284942626953,-2.82820725440979
168,764904772,95.98807525634766,62.33723831176758,56.20499038696289,-11.32568836212158,2.67596316337585,-2.82014942169189,-172.32617187500000,109.20005798339844,2.60393595695496
169,764913105,96.47061157226562,62.19172668457031,58.37157440185547,-11.48083400726318,2.71121716499329,-3.27820396423340,-172.71633911132812,122.33639526367188,3.76436543464661
170,764921438,96.98272705078125,62.00971603393555,60.63469696044922,-12.69987487792969,3.45378136634827,-2.47444748878479,-179.06204223632812,128.90719604492188,6.33679914474487
171,764929771,97.70068359375000,61.81676483154297,63.27970123291016,-12.21472263336182,3.73390841484070,-3.83901929855347,-194.33302307128906,151.38887023925781,3.23235583305359
172,764938104,98.21901702880859,61.56529235839844,65.84802246093750,-13.00452804565430,4.36119365692139,-3.42540383338928,-209.60678100585938,149.15020751953125,9.00800323486328
173,764946437,98.99356842041016,61.27553176879883,68.80153656005859,-12.29626369476318,4.86687421798706,-4.38355636596680,-218.80908203125000,172.97233581542969,8.53140544891357
174,764954770,99.55830383300781,60.95778656005859,71.72813415527344,-13.23270034790039,4.47121620178223,-3.83718442916870,-240.27087402343750,173.68945312500000,9.80043411254883
175,764963103,100.30167388916016,60.61879730224609,74.96271514892578,-12.71489715576172,4.35578393936157,-4.29744005203247,-250.05035400390625,193.82650756835938,6.75973224639893
176,764971436,100.85734558105469,60.30643081665039,78.22785186767578,-12.68139076232910,3.64711570739746,-4.66928625106812,-274.75543212890625,196.86769104003906,0.88570129871368
177,764979769,101.43904876708984,59.98266220092773,81.61660003662109,-12.37539482116699,3.66652894020081,-4.16553115844727,-283.34744262695312,206.34951782226562,-1.66393983364105
178,764988102,101.93886566162109,59.70630264282227,85.02926635742188,-12.01777648925781,2.58862590789795,-4.99278640747070,-294.67135620117188,208.26197814941406,-9.71519851684570
179,764996435,102.43284606933594,59.42384338378906,88.45835113525391,-11.63744068145752,2.42966985702515,-5.51387023925781,-295.98263549804688,211.12437438964844,-11.50900936126709
180,765004768,102.79155731201172,59.16241455078125,91.70980834960938,-11.41061305999756,1.03831911087036,-6.12681865692139,-292.98434448242188,201.36073303222656,-13.40838146209717
181,765013101,103.16842651367188,58.89456176757812,94.89712524414062,-10.17686653137207,1.23067378997803,-5.54385662078857,-283.18923950195312,199.24189758300781,-13.52886104583740
182,765021434,103.29748535156250,58.63074111938477,97.77634429931641,-10.16611671447754,1.43986833095551,-4.30448532104492,-280.49932861328125,181.72790527343750,-10.72036933898926
183,765029767,103.20690155029297,58.38014221191406,100.31681060791016,-9.27085971832275,1.17386388778687,-3.17291569709778,-271.28384399414062,162.14251708984375,-7.87767314910889
184,765038100,102.95919799804688,58.15333175659180,102.58992004394531,-8.38742828369141,0.93113285303116,-2.22880625724792,-262.29681396484375,145.96206665039062,-6.50024223327637
185,765046433,102.50283813476562,57.87887191772461,104.52161407470703,-8.60520839691162,0.29601442813873,-1.16053569316864,-251.83978271484375,127.25086212158203,4.43221378326416
186,765054766,102.01495361328125,57.58657455444336,106.24391937255859,-7.70158767700195,-0.72180891036987,-1.35526514053345,-233.88275146484375,115.31935882568359,10.30522346496582
187,765063099,101.77726745605469,57.32952117919922,108.18270874023438,-4.82652139663696,0.28677269816399,-2.54609036445618,-225.11184692382812,129.04930114746094,3.75255417823792
188,765071432,101.58258056640625,57.16824340820312,110.24914550781250,-1.98336732387543,2.79037666320801,-4.05857419967651,-232.49723815917969,135.33639526367188,-8.75964164733887
189,765079765,101.28326416015625,57.00540924072266,112.15046691894531,-0.45096501708031,4.68428516387939,-1.50039601325989,-227.91473388671875,125.61466979980469,-6.05719327926636
190,765088098,101.01690673828125,56.83490753173828,113.97000885009766,0.08483532071114,3.76164484024048,1.84039843082428,-215.49856567382812,120.92115020751953,-3.54529094696045
191,765096431,101.03298950195312,56.62704086303711,116.04510498046875,1.57848393917084,3.29374146461487,0.59497785568237,-206.73316955566406,139.07633972167969,-2.27601337432861
192,765104764,101.23812866210938,56.36566543579102,118.32573699951172,-0.26749745011330,4.59004306793213,-1.19290864467621,-204.16876220703125,154.31756591796875,0.99255764484406
193,765113097,101.42541503906250,56.05284118652344,120.62294769287109,-2.90151715278625,6.06713724136353,-2.19202661514282,-207.08769226074219,157.93118286132812,6.04865121841431
194,765121430,101.57921600341797,55.76541519165039,122.95892333984375,-3.56693577766418,6.57936191558838,-2.68789839744568,-214.27084350585938,160.87831115722656,1.83453059196472
195,765129763,101.73946380615234,55.50083541870117,125.38562011718750,-4.14581537246704,6.22332715988159,-3.98984622955322,-221.60458374023438,167.63587951660156,-2.76062130928040
196,765138096,101.93893432617188,55.23147964477539,127.85548400878906,-5.47327613830566,5.77346849441528,-5.90476655960083,-220.50746154785156,171.52923583984375,-3.58220505714417
197,765146429,102.17774963378906,54.93850326538086,130.30586242675781,-6.44837856292725,5.59055089950562,-6.62699794769287,-212.92631530761719,172.15393066406250,-1.41629195213318
198,765154762,102.41878509521484,54.62917327880859,132.69564819335938,-7.09497499465942,6.00276803970337,-7.04864406585693,-205.94964599609375,169.51342773437500,0.36425730586052
199,765163095,102.62086486816406,54.28821563720703,134.96966552734375,-7.89004755020142,6.23974752426147,-7.26711893081665,-198.25827026367188,163.94717407226562,4.91875791549683
200,765171428,102.80490112304688,53.92859268188477,137.17788696289062,-7.88204669952393,7.43872356414795,-7.02078580856323,-193.17660522460938,161.06101989746094,7.21193552017212
201,765179761,102.95439910888672,53.57511138916016,139.35314941406250,-7.33546543121338,8.19960212707520,-6.70293664932251,-193.03480529785156,160.14187622070312,6.30926418304443
202,765188094,103.05157470703125,53.22850418090820,141.46743774414062,-7.65311098098755,8.51288032531738,-5.94598674774170,-192.62223815917969,156.75975036621094,5.76802349090576
203,765196427,103.04731750488281,52.94960784912109,143.48953247070312,-8.19167900085449,7.69774627685547,-5.55330657958984,-194.98785400390625,149.75239562988281,-0.93500787019730
204,765204760,102.97679138183594,52.76792907714844,145.44018554687500,-8.46644592285156,6.52229738235474,-5.71874284744263,-195.64636230468750,142.62710571289062,-11.31922149658203
205,765213093,102.85074615478516,52.68094253540039,147.31141662597656,-8.96330738067627,5.55497503280640,-5.85547828674316,-194.26768493652344,135.11788940429688,-20.85313606262207
206,765221426,102.72283935546875,52.65839767456055,149.13568115234375,-9.15437889099121,4.94155359268188,-6.03095102310181,-190.00399780273438,130.07386779785156,-27.49471473693848
207,765229759,102.58054351806641,52.68194198608398,150.91360473632812,-9.48347473144531,4.04776859283447,-6.38606739044189,-187.18388366699219,125.84462738037109,-31.72561454772949
208,765238092,102.42499542236328,52.73516845703125,152.63488769531250,-9.47630977630615,3.33144354820251,-6.58814144134521,-183.58273315429688,120.80453491210938,-34.09243011474609
209,765246425,102.30952453613281,52.78302383422852,154.32971191406250,-9.31183624267578,3.40799212455750,-6.71108675003052,-176.22709655761719,119.22233581542969,-32.60019683837891
210,765254758,102.23885345458984,52.81138992309570,156.00584411621094,-9.44953441619873,4.42909431457520,-6.85936880111694,-169.27635192871094,118.11950683593750,-29.94927024841309
211,765263091,102.18518066406250,52.84526062011719,157.58540344238281,-9.30631732940674,4.47728061676025,-6.95385074615479,-157.93717956542969,111.30030059814453,-28.83108901977539
212,765271424,102.20871734619141,52.83158111572266,159.09962463378906,-8.76450157165527,5.64057588577271,-6.71703958511353,-142.57771301269531,107.63546752929688,-22.35953712463379
213,765279757,102.21997070312500,52.77457809448242,160.53277587890625,-8.68944931030273,6.39814567565918,-6.60629081726074,-136.10169982910156,103.29010009765625,-15.94665622711182
214,765288090,102.18244171142578,52.69897460937500,161.87458801269531,-9.21888160705566,6.26665258407593,-5.94931268692017,-133.24275207519531,97.20592498779297,-12.51998710632324
215,765296423,102.09536743164062,52.65719223022461,163.10696411132812,-8.84310722351074,5.25113058090210,-5.88629674911499,-128.51258850097656,88.93556976318359,-14.58630466461182
216,765304756,102.08531188964844,52.60251998901367,164.31918334960938,-8.77869510650635,6.37867498397827,-4.90366268157959,-117.40633392333984,87.70233917236328,-12.87053966522217
217,765313089,102.07436370849609,52.61460494995117,165.51939392089844,-9.17639350891113,5.54099273681641,-5.05103683471680,-116.19898986816406,85.44441223144531,-20.35351753234863
218,765321422,102.14275360107422,52.66145706176758,166.69882202148438,-8.21984672546387,5.65537405014038,-5.75239515304565,-104.88204193115234,82.78990173339844,-24.31678390502930
219,765329755,102.30488586425781,52.69324493408203,167.92605590820312,-8.22109794616699,7.05233097076416,-5.36592864990234,-98.11681365966797,86.68302154541016,-23.26606559753418
220,765338088,102.46415710449219,52.73925018310547,169.11509704589844,-8.69914054870605,6.53878879547119,-5.64969158172607,-95.00489044189453,83.22605133056641,-24.73649024963379
221,765346421,102.61897277832031,52.81054306030273,170.23167419433594,-8.30313587188721,6.45011615753174,-5.57390499114990,-88.56947326660156,77.49011230468750,-26.58468818664551
222,765354754,102.80139160156250,52.90744018554688,171.34352111816406,-8.12957668304443,6.01690149307251,-5.71022891998291,-84.92560577392578,76.24979400634766,-29.69953346252441
223,765363087,103.01757049560547,53.01702499389648,172.43922424316406,-8.58097076416016,5.70614242553711,-5.06805849075317,-79.60375976562500,74.24198150634766,-31.33556556701660
224,765371420,103.26895904541016,53.15945816040039,173.50375366210938,-8.32382965087891,5.51869106292725,-5.14709758758545,-72.57036590576172,70.80255889892578,-34.91272735595703
225,765379753,103.53770446777344,53.29393386840820,174.54872131347656,-8.41442394256592,6.70419168472290,-4.60509204864502,-68.65135955810547,69.50782012939453,-33.73180389404297
226,765388086,103.79378509521484,53.45252227783203,175.57887268066406,-8.33646678924561,6.15815687179565,-4.77758264541626,-68.93416595458984,67.39049530029297,-36.54693603515625
227,765396419,104.07474517822266,53.60510635375977,176.56559753417969,-7.78232908248901,6.72074174880981,-4.73477315902710,-62.08993911743164,63.87549209594727,-35.55414962768555
228,765404752,104.37136840820312,53.72130584716797,177.52438354492188,-7.88567733764648,7.71211624145508,-4.56335830688477,-57.68106460571289,62.62714767456055,-31.10656356811523
229,765413085,104.63243865966797,53.81507492065430,178.41674804687500,-8.22281455993652,8.26063632965088,-4.11643600463867,-55.50990676879883,58.68339538574219,-27.37589645385742
230,765421418,104.80573272705078,53.93345260620117,179.25961303710938,-8.35152435302734,7.21599769592285,-3.82184767723083,-61.35641479492188,54.28803634643555,-29.52224731445312
231,765429751,105.01940155029297,54.07439041137695,-179.89788818359375,-7.61695194244385,6.51293134689331,-4.62603664398193,-56.74305725097656,53.03226089477539,-32.48704528808594
232,765438084,105.28941345214844,54.19322586059570,-178.98751831054688,-8.27117252349854,7.45072793960571,-3.88899827003479,-56.71562957763672,58.01113891601562,-31.35322189331055
233,765446417,105.56304931640625,54.35633850097656,-178.04273986816406,-8.18335437774658,6.37948465347290,-4.14089012145996,-59.66325378417969,58.83209991455078,-37.11303710937500
234,765454750,105.82536315917969,54.52485275268555,-177.14573669433594,-7.90319013595581,6.48663759231567,-3.54707431793213,-56.54329681396484,55.01733016967773,-37.03342437744141
235,765463083,106.06829833984375,54.70647430419922,-176.26031494140625,-7.74028730392456,5.85782861709595,-4.27628087997437,-58.04793548583984,53.12882995605469,-38.72647476196289
236,765471416,106.33377838134766,54.88847732543945,-175.41406250000000,-7.84382295608521,5.37640857696533,-4.09584045410156,-51.70350646972656,50.07756423950195,-38.18010711669922
237,765479749,106.61676788330078,55.08038711547852,-174.57640075683594,-7.33971595764160,5.01683664321899,-3.86010861396790,-48.82589340209961,49.00369644165039,-39.07736968994141
238,765488082,106.93228912353516,55.25652313232422,-173.76831054687500,-7.14236974716187,5.07623386383057,-3.63381934165955,-42.18977355957031,47.15367126464844,-36.85484313964844
239,765496415,107.23122406005859,55.42099380493164,-172.98928833007812,-7.02390003204346,4.92610359191895,-3.43369174003601,-41.58883666992188,44.97527313232422,-35.35801696777344
240,765504748,107.51708221435547,55.58105468750000,-172.25813293457031,-6.84151315689087,4.81333017349243,-3.17918944358826,-38.58171844482422,41.64052963256836,-34.05327987670898
241,765513081,107.79216003417969,55.74391174316406,-171.56953430175781,-6.63844871520996,4.85379219055176,-2.76748919487000,-35.67656326293945,38.71249008178711,-33.38821029663086
242,765521414,108.04734039306641,55.89448547363281,-170.93124389648438,-6.78868103027344,5.41656637191772,-1.72982394695282,-33.19689178466797,35.60606002807617,-31.06603622436523
243,765529747,108.26541900634766,56.04414749145508,-170.32374572753906,-7.11851835250854,5.58103036880493,-0.95764338970184,-34.81712722778320,33.11560058593750,-30.66975593566895
244,765538080,108.39481353759766,56.20864486694336,-169.83093261718750,-7.58690309524536,6.16168832778931,0.16853031516075,-34.13868331909180,25.03091812133789,-29.99516105651855
245,765546413,108.41927337646484,56.44247436523438,-169.37524414062500,-7.77644300460815,4.98776960372925,-0.14995257556438,-43.02877044677734,20.13176345825195,-36.83087158203125
246,765554746,108.46900939941406,56.75562667846680,-168.94401550292969,-6.34173202514648,4.21471738815308,-1.82313728332520,-37.68690872192383,15.35658740997314,-45.29528045654297
247,765563079,108.67961883544922,57.04957962036133,-168.32606506347656,-5.63727474212646,5.77567386627197,-1.54752278327942,-37.40555953979492,27.10561370849609,-47.23439407348633
248,765571412,108.90167236328125,57.32966995239258,-167.60078430175781,-6.67479467391968,5.07380723953247,-1.85392796993256,-47.05557632446289,33.77976989746094,-47.91406631469727
249,765579745,109.03591156005859,57.66604614257812,-166.99911499023438,-6.23072767257690,4.62169694900513,-1.77425360679626,-45.23338699340820,23.79103660583496,-51.41387557983398
250,765588078,109.17822265625000,57.99495315551758,-166.36067199707031,-5.63735675811768,5.27901411056519,-1.89100742340088,-48.22811126708984,25.84831809997559,-51.28039169311523
251,765596411,109.29430389404297,58.31379318237305,-165.71165466308594,-6.15635824203491,4.66861391067505,-1.86203193664551,-52.77447509765625,26.15498542785645,-50.57799148559570
252,765604744,109.38246917724609,58.65080261230469,-165.08683776855469,-5.60720634460449,4.06687593460083,-1.94401741027832,-53.88212203979492,23.55502700805664,-52.05833053588867
253,765613077,109.49304962158203,58.97493362426758,-164.40527343750000,-5.47954368591309,3.66941332817078,-2.03857874870300,-57.15259933471680,27.21718215942383,-51.40755081176758
254,765621410,109.61264038085938,59.30279541015625,-163.73283386230469,-5.61487722396851,3.05521321296692,-2.03448724746704,-55.37349700927734,26.06074714660645,-51.56080245971680
255,765629743,109.81354522705078,59.62084579467773,-163.01824951171875,-4.99116659164429,2.76439785957336,-2.35947847366333,-50.27616119384766,28.10939979553223,-51.55142211914062
256,765638076,110.08406829833984,59.87861633300781,-162.26011657714844,-5.08619737625122,3.34594392776489,-2.10688948631287,-46.65224456787109,32.49174499511719,-45.63801956176758
257,765646409,110.42655944824219,60.11384963989258,-161.43849182128906,-5.07267332077026,2.14786577224731,-2.48975992202759,-44.73964691162109,36.70428085327148,-44.18483734130859
258,765654742,110.86827087402344,60.30679321289062,-160.53668212890625,-4.43120336532593,2.43871569633484,-2.80845642089844,-41.36815261840820,42.37047958374023,-41.25821685791016
259,765663075,111.37541198730469,60.43547439575195,-159.56590270996094,-5.45445156097412,3.10468769073486,-2.39933323860168,-40.92393112182617,48.12352371215820,-36.08911895751953
260,765671408,111.82743072509766,60.57329559326172,-158.66853332519531,-6.00137853622437,3.42075896263123,-1.54943943023682,-40.00767517089844,43.16875457763672,-35.82692718505859
261,765679741,112.23156738281250,60.72484207153320,-157.77909851074219,-5.88560295104980,3.98687624931335,-1.41642892360687,-44.99074172973633,41.90020751953125,-37.11363601684570
262,765688074,112.65442657470703,60.84133911132812,-156.83776855468750,-5.75367116928101,4.65107250213623,-1.28246903419495,-48.30264282226562,45.84595870971680,-34.60418701171875
263,765696407,112.98814392089844,60.92485046386719,-155.93989562988281,-7.07451391220093,4.56566572189331,-0.38442766666412,-54.59464645385742,44.40474319458008,-30.51326942443848
264,765704740,113.31977081298828,61.06417465209961,-155.01824951171875,-6.31166648864746,3.05205559730530,-1.13811469078064,-57.43829727172852,42.70489120483398,-37.40723037719727
265,765713073,113.69367218017578,61.14417648315430,-154.04231262207031,-6.28369283676147,3.87187242507935,-1.80383443832397,-58.12344741821289,48.28850936889648,-32.01034927368164
266,765721406,114.09774780273438,61.17931747436523,-153.09680175781250,-7.29830408096313,3.21116518974304,-1.99953460693359,-51.35718154907227,48.55054855346680,-26.65684127807617
267,765729739,114.47631835937500,61.19497299194336,-152.23002624511719,-7.43003654479980,3.06157326698303,-2.34765863418579,-46.20416641235352,44.89884567260742,-23.28494453430176
268,765738072,114.74010467529297,61.15233230590820,-151.52565002441406,-8.42468452453613,3.42812871932983,-2.34549045562744,-42.89557647705078,39.16286468505859,-13.27092933654785
269,765746405,114.90902709960938,61.09228515625000,-150.98649597167969,-9.06361865997314,3.28805875778198,-1.98694682121277,-36.83196258544922,31.60666275024414,-7.20898723602295
270,765754738,114.98224639892578,60.99907302856445,-150.58158874511719,-9.27243328094482,4.15572071075439,-1.37835931777954,-34.18199157714844,26.26766014099121,-0.41218492388725
271,765763071,114.93783569335938,60.89026260375977,-150.29669189453125,-10.09056186676025,4.20912933349609,-0.59121680259705,-35.71572113037109,20.54478645324707,3.87494015693665
272,765771404,114.88789367675781,60.83210372924805,-150.01675415039062,-9.45689582824707,3.76352119445801,-0.58759570121765,-35.82114791870117,17.76581573486328,-1.50865483283997
273,765779737,114.85696411132812,60.77958679199219,-149.72738647460938,-9.00725364685059,4.07440042495728,-0.86647671461105,-34.48344039916992,18.24026870727539,-2.03979229927063
274,765788070,114.75682067871094,60.72245025634766,-149.52500915527344,-9.40986633300781,4.18931818008423,-0.52077972888947,-33.68969726562500,13.64742088317871,0.29849582910538
275,765796403,114.60572814941406,60.70377731323242,-149.34632873535156,-9.17816543579102,3.12774825096130,-1.29095029830933,-37.28935623168945,10.68841171264648,-2.97635245323181
276,765804736,114.50259399414062,60.66094589233398,-149.16462707519531,-8.58905696868896,3.14494633674622,-2.48563170433044,-31.86754226684570,11.85590457916260,-0.70562160015106
277,765813069,114.46474456787109,60.57057571411133,-148.98654174804688,-8.41204738616943,3.35243678092957,-1.81523370742798,-23.61662101745605,14.25856971740723,4.89000415802002
278,765821402,114.43244171142578,60.45613479614258,-148.77711486816406,-9.05582141876221,3.83961439132690,-1.12042129039764,-26.23768424987793,16.95831871032715,6.44033384323120
279,765829735,114.38616943359375,60.36500930786133,-148.52970886230469,-9.13087749481201,3.47962546348572,-1.91006040573120,-31.82595252990723,18.09157371520996,3.26529383659363
280,765838068,114.40783691406250,60.27187728881836,-148.23223876953125,-8.70296764373779,3.60596823692322,-2.48070216178894,-28.89689445495605,20.73141479492188,1.93664312362671
281,765846401,114.46006774902344,60.18414306640625,-147.90014648437500,-8.57341766357422,3.79229760169983,-2.17873406410217,-28.77312088012695,22.59271812438965,0.76967030763626
282,765854734,114.55276489257812,60.08913040161133,-147.50357055664062,-8.37236118316650,3.93656706809998,-2.07287335395813,-30.62865257263184,26.30871391296387,-0.39189842343330
283,765863067,114.64653015136719,59.98256301879883,-147.13825988769531,-9.03651905059814,4.54413175582886,-1.34955430030823,-27.17660522460938,25.45536613464355,1.88335275650024
284,765871400,114.68511962890625,59.86798095703125,-146.83485412597656,-9.59629058837891,4.59894752502441,-0.72653281688690,-27.36333084106445,22.34046363830566,3.93981885910034
285,765879733,114.70732116699219,59.73705291748047,-146.54084777832031,-9.88308906555176,4.60804462432861,-0.58324116468430,-28.28270912170410,22.91138458251953,6.22927379608154
286,765888066,114.71615600585938,59.60046386718750,-146.23216247558594,-10.33696746826172,4.91880702972412,-0.33380651473999,-31.38572692871094,23.87794113159180,6.13270902633667
287,765896399,114.67111968994141,59.46250152587891,-145.97619628906250,-10.96560573577881,5.57730865478516,0.37779974937439,-32.33150863647461,21.29089927673340,7.90242385864258
288,765904732,114.51136779785156,59.36505508422852,-145.77375793457031,-11.44048881530762,5.37097740173340,0.80007249116898,-40.54735183715820,16.15567970275879,4.55669069290161
289,765913065,114.36062622070312,59.31721496582031,-145.47152709960938,-10.83449172973633,4.49562597274780,-0.63548672199249,-49.74312210083008,19.43332481384277,-3.05711770057678
290,765921398,114.28778839111328,59.27280044555664,-145.10070800781250,-10.51217365264893,4.65458631515503,-0.71497762203217,-47.46567153930664,22.96891593933105,-5.43689060211182
291,765929731,114.18689727783203,59.24414443969727,-144.75378417968750,-10.79883193969727,4.76202964782715,0.05197682231665,-48.34080886840820,21.03833961486816,-6.23313665390015
292,765938064,114.08624267578125,59.24254226684570,-144.38673400878906,-10.56080436706543,4.29235744476318,-0.67213052511215,-50.37871170043945,20.71787071228027,-9.96087646484375
293,765946397,114.03813934326172,59.22603988647461,-144.02494812011719,-10.87596416473389,4.37974977493286,-0.56558215618134,-43.53345489501953,21.30531311035156,-7.88118457794189
294,765954730,113.97418212890625,59.21717453002930,-143.71311950683594,-11.06467723846436,4.67094945907593,-0.39304858446121,-40.27434921264648,18.02096176147461,-7.74311923980713
295,765963063,113.86074066162109,59.21663284301758,-143.44631958007812,-11.23366355895996,4.98749780654907,-0.51343750953674,-41.56695556640625,15.22706031799316,-7.21346807479858
296,765971396,113.71616363525391,59.23690795898438,-143.20298767089844,-11.14620304107666,4.86305093765259,-0.53888791799545,-42.88591384887695,12.80057048797607,-9.17342185974121
297,765979729,113.54718017578125,59.25816726684570,-142.99665832519531,-11.31132030487061,4.85235404968262,0.14169037342072,-42.01015853881836,10.79942703247070,-8.04554748535156
298,765988062,113.34211730957031,59.29466247558594,-142.79557800292969,-10.98152351379395,4.35708761215210,-0.16264498233795,-45.78107833862305,9.69614791870117,-9.83281230926514
299,765996395,113.13905334472656,59.33816909790039,-142.57054138183594,-10.73492145538330,4.08411645889282,-0.61096453666687,-48.05047225952148,10.82336997985840,-10.87123012542725
300,766004728,112.96110534667969,59.37107086181641,-142.32087707519531,-10.39512348175049,3.89517903327942,-0.46946039795876,-47.55623626708984,12.64939975738525,-10.51425743103027
301,766013061,112.75233459472656,59.40156936645508,-142.07095336914062,-10.50679111480713,3.53125095367432,-0.63816183805466,-51.32439804077148,12.87399196624756,-9.94088554382324
302,766021394,112.61349487304688,59.42344665527344,-141.76982116699219,-9.79134273529053,2.88063669204712,-1.87894427776337,-48.19345855712891,16.11143112182617,-10.40895938873291
303,766029727,112.50276947021484,59.40068054199219,-141.51979064941406,-10.86429595947266,3.94549155235291,0.42512986063957,-39.57450103759766,15.36864089965820,-3.96848392486572
304,766038060,112.30317687988281,59.39779281616211,-141.30433654785156,-10.90313720703125,3.41425728797913,-0.47722175717354,-46.62274169921875,12.46920204162598,-5.57461595535278
305,766046393,112.12626647949219,59.36703491210938,-141.11376953125000,-11.17403221130371,3.81762742996216,-0.15256392955780,-41.36662292480469,12.40032005310059,-1.62030792236328
306,766054726,111.88623809814453,59.33487319946289,-141.00773620605469,-11.23301601409912,4.20477771759033,0.21478028595448,-40.17031860351562,7.64346504211426,0.27380371093750
307,766063059,111.59023284912109,59.28170013427734,-140.98364257812500,-11.11818218231201,4.36454677581787,0.15114252269268,-38.46496963500977,3.95470213890076,4.74853944778442
308,766071392,111.24457550048828,59.22448730468750,-140.99552917480469,-11.07117748260498,4.09936380386353,-0.30694252252579,-40.65855407714844,2.03191590309143,5.80115795135498
309,766079725,110.88005828857422,59.14566040039062,-141.06681823730469,-11.12795639038086,4.53591680526733,0.60533440113068,-36.85062789916992,-0.47053402662277,9.76691150665283
310,766088058,110.45573425292969,59.09627151489258,-141.13676452636719,-10.68238639831543,3.32313942909241,-1.02486026287079,-44.12445831298828,-1.72035717964172,6.21695613861084
311,766096391,110.11668395996094,59.01632690429688,-141.16954040527344,-10.30262756347656,3.94882154464722,-0.25839179754257,-37.76232528686523,1.65054512023926,9.06784820556641
312,766104724,109.72618865966797,58.94832229614258,-141.23214721679688,-10.39708518981934,3.47736835479736,-0.45968952775002,-40.83299255371094,-0.62883037328720,8.15477752685547
313,766113057,109.34265899658203,58.85884094238281,-141.30564880371094,-10.37861633300781,3.79696798324585,-0.29811695218086,-38.92257308959961,-0.48147144913673,11.01135826110840
314,766121390,108.93640899658203,58.77803421020508,-141.39045715332031,-10.12121582031250,3.15828466415405,-0.97454786300659,-40.44627380371094,-1.55762982368469,10.06168460845947
315,766129723,108.58499908447266,58.66840744018555,-141.47015380859375,-10.16606998443604,3.81028795242310,-0.20991358160973,-34.45236968994141,-0.24786925315857,13.41955757141113
316,766138056,108.16614532470703,58.57458877563477,-141.57827758789062,-10.42505359649658,3.25666546821594,-0.88018304109573,-39.58526992797852,-2.61278390884399,12.00460338592529
317,766146389,107.82930755615234,58.46510314941406,-141.63392639160156,-9.99810028076172,3.47587633132935,-1.18173694610596,-35.17776107788086,0.96605479717255,12.94384860992432
318,766154722,107.44552612304688,58.35596084594727,-141.76301574707031,-10.72304821014404,3.51631331443787,-0.01534216105938,-33.25776672363281,-3.50695133209229,14.14738464355469
319,766163055,107.03079986572266,58.26446533203125,-141.87603759765625,-10.39077472686768,3.19655323028564,-1.07442557811737,-38.67982482910156,-3.32865118980408,11.96507930755615
320,766171388,106.64398193359375,58.16253280639648,-141.97326660156250,-10.09006023406982,3.19249510765076,-1.10017585754395,-36.95191192626953,-2.11814618110657,12.85671043395996
321,766179721,106.28411865234375,58.03726577758789,-142.09671020507812,-10.36117362976074,3.58226799964905,-0.02280519902706,-31.01123809814453,-2.97683811187744,15.85613536834717
322,766188054,105.81027984619141,57.90768432617188,-142.35708618164062,-11.19087219238281,4.41612863540649,1.06352221965790,-30.76711654663086,-11.34819507598877,18.76328277587891
323,766196387,105.29553985595703,57.80861663818359,-142.56767272949219,-10.32014560699463,3.40874576568604,-1.30729401111603,-40.82690811157227,-9.54421329498291,14.42607498168945
324,766204720,104.86351776123047,57.65929794311523,-142.80068969726562,-10.36842536926270,4.63667011260986,0.92559885978699,-28.64842605590820,-9.53234863281250,20.55443572998047
325,766213053,104.28620910644531,57.51485824584961,-143.14494323730469,-11.16358661651611,5.31570959091187,1.63847386837006,-34.79538345336914,-16.77906990051270,21.60483741760254
326,766221386,103.73479461669922,57.39949798583984,-143.36604309082031,-10.13711929321289,4.49926662445068,-0.63799166679382,-44.18679428100586,-10.18659687042236,16.15586662292480
327,766229719,103.19799804687500,57.26916503906250,-143.58274841308594,-10.28657627105713,4.83998727798462,0.25658747553825,-42.97930908203125,-9.78737258911133,17.84418106079102
328,766238052,102.63187408447266,57.15637588500977,-143.80087280273438,-9.94376659393311,3.79866075515747,-1.08546960353851,-46.38747787475586,-10.56858444213867,15.72864723205566
329,766246385,102.14981842041016,57.03915405273438,-143.92810058593750,-9.51514244079590,3.66610693931580,-0.56441122293472,-45.40815734863281,-4.76141357421875,14.80040740966797
330,766254718,101.64368438720703,56.93194961547852,-144.04345703125000,-9.84224700927734,2.97446537017822,-1.15076279640198,-49.50148773193359,-4.40688753128052,13.44154739379883
331,766263051,101.26698303222656,56.83735656738281,-144.05087280273438,-9.25518512725830,2.81619381904602,-2.14632797241211,-44.92092514038086,2.00046277046204,10.58562755584717
332,766271384,100.90073394775391,56.70978927612305,-144.11352539062500,-9.76360607147217,3.43541073799133,-0.63295555114746,-38.11854934692383,-0.87757068872452,15.17962074279785
333,766279717,100.52225494384766,56.58576965332031,-144.19609069824219,-9.78364372253418,3.48544120788574,-0.81810355186462,-37.52004241943359,-2.26442980766296,14.95713424682617
334,766288050,100.15946197509766,56.46404266357422,-144.26016235351562,-9.64771175384521,3.78194403648376,-0.80110508203506,-37.50456619262695,-1.22359359264374,14.47089862823486
335,766296383,99.76412963867188,56.33801651000977,-144.35057067871094,-9.87214756011963,4.18715000152588,-0.31197813153267,-38.85526657104492,-3.07650494575500,15.30274868011475
336,766304716,99.31413269042969,56.21002578735352,-144.47259521484375,-10.32436752319336,4.28162765502930,0.11551450937986,-42.27731323242188,-5.25146484375000,15.86139869689941
337,766313049,98.86315155029297,56.10070419311523,-144.55802917480469,-10.34733200073242,4.00071239471436,-0.11424231529236,-45.98955535888672,-3.23728728294373,13.20830154418945
338,766321382,98.39463043212891,56.00321960449219,-144.64262390136719,-10.45201206207275,4.13999700546265,0.12671424448490,-48.17123794555664,-3.51358938217163,11.79641914367676
339,766329715,97.89309692382812,55.92917633056641,-144.72991943359375,-10.33188247680664,4.06375789642334,-0.22483804821968,-51.96055221557617,-4.32356548309326,8.99337291717529
340,766338048,97.37110137939453,55.86310195922852,-144.83261108398438,-9.99273586273193,4.11669778823853,-0.19339585304260,-52.89163589477539,-5.57374906539917,8.14282417297363
341,766346381,96.84086608886719,55.80586242675781,-144.92982482910156,-9.56654453277588,3.98141384124756,-0.27399498224258,-54.35378265380859,-5.30656623840332,7.02383852005005
342,766354714,96.34178161621094,55.74916076660156,-145.00529479980469,-9.42786598205566,4.20374679565430,0.01208395324647,-52.77757263183594,-3.93230724334717,6.75790977478027
343,766363047,95.82987976074219,55.68885040283203,-145.09228515625000,-9.48413085937500,4.35013389587402,0.00387680158019,-53.26060485839844,-4.85905790328979,7.18395185470581
344,766371380,95.30112457275391,55.61185836791992,-145.20297241210938,-9.49963378906250,4.51078033447266,0.06025379896164,-52.93601989746094,-6.34081935882568,9.29211044311523
345,766379713,94.73311614990234,55.53128051757812,-145.31719970703125,-9.34075927734375,3.91954350471497,-0.65604096651077,-57.23168182373047,-6.52330017089844,9.74216175079346
346,766388046,94.21386718750000,55.44406890869141,-145.38121032714844,-9.10193157196045,3.62354969978333,-0.99531579017639,-56.34761428833008,-3.17151236534119,10.22368240356445
347,766396379,93.70346069335938,55.34464263916016,-145.45332336425781,-9.15960693359375,3.47103834152222,-0.76063543558121,-54.58284378051758,-3.85853815078735,11.60905456542969
348,766404712,93.17683410644531,55.24021530151367,-145.53381347656250,-9.06814193725586,3.08843064308167,-1.13836979866028,-55.71176147460938,-4.51672458648682,12.20515346527100
349,766413045,92.69393920898438,55.13703536987305,-145.59173583984375,-9.05192947387695,2.86819887161255,-1.00735104084015,-52.61112976074219,-2.98073601722717,12.04080867767334
350,766421378,92.20877838134766,55.01305770874023,-145.69308471679688,-9.40965366363525,3.18303513526917,-0.23273903131485,-48.62609863281250,-5.98001575469971,14.66089153289795
351,766429711,91.68351745605469,54.88708877563477,-145.84524536132812,-9.65517330169678,3.29945468902588,-0.06529933214188,-48.53852081298828,-9.74500942230225,14.83137989044189
352,766438044,91.13194274902344,54.75231170654297,-146.02017211914062,-9.81453990936279,3.72673797607422,0.05408196151257,-49.48869323730469,-11.47118282318115,15.83085250854492
353,766446377,90.49657440185547,54.61778640747070,-146.28157043457031,-10.08177471160889,4.03716325759888,-0.41040787100792,-51.01856994628906,-17.56831359863281,15.92918968200684
354,766454710,89.84012603759766,54.47983932495117,-146.56593322753906,-9.61559200286865,4.03978538513184,-0.62772542238235,-51.35490036010742,-19.40493965148926,16.15882492065430
355,766463043,89.14812469482422,54.31779479980469,-146.90045166015625,-9.66427993774414,4.18660545349121,-0.49576091766357,-50.85854721069336,-23.31937026977539,18.60586547851562
356,766471376,88.37847137451172,54.13414001464844,-147.31005859375000,-9.78864288330078,4.11150121688843,-0.27867257595062,-52.93252182006836,-28.98243331909180,20.78253173828125
357,766479709,87.54028320312500,53.94273376464844,-147.77255249023438,-9.79644966125488,3.38176417350769,-1.05688500404358,-56.03832244873047,-33.06263732910156,21.36388587951660
358,766488042,86.70523071289062,53.72540283203125,-148.26512145996094,-9.93778610229492,2.99358487129211,-0.88781481981277,-52.86053848266602,-35.82754516601562,23.89585876464844
359,766496375,85.83684539794922,53.46713638305664,-148.85246276855469,-10.32878971099854,2.59562063217163,-0.42666918039322,-47.93842697143555,-43.53659820556641,27.57206344604492
360,766504708,84.95858764648438,53.19952774047852,-149.49395751953125,-10.30064678192139,2.59747838973999,-0.18140837550163,-44.09856414794922,-48.17728805541992,27.68774223327637
361,766513041,84.07338714599609,52.92931365966797,-150.15562438964844,-9.95485687255859,2.29330062866211,-0.59086650609970,-43.13300323486328,-50.29078292846680,27.35309028625488
362,766521374,83.21000671386719,52.63080215454102,-150.85258483886719,-10.14339637756348,2.65684056282043,0.02362242341042,-37.37630844116211,-53.95389175415039,29.67388343811035
363,766529707,82.26197052001953,52.28113937377930,-151.67335510253906,-11.29551410675049,3.06402134895325,0.94291400909424,-36.12768173217773,-64.62222290039062,33.39881515502930
364,766538040,81.23846435546875,51.90605545043945,-152.57218933105469,-11.54070377349854,3.20968580245972,1.01438927650452,-38.16503524780273,-71.82183837890625,34.40670013427734
365,766546373,80.25961303710938,51.50363159179688,-153.48730468750000,-11.58243465423584,3.51850867271423,2.06112337112427,-31.64804458618164,-74.64356231689453,36.43160247802734
366,766554706,79.26099395751953,51.03339004516602,-154.59915161132812,-11.92053604125977,4.32121658325195,2.82884240150452,-16.10448074340820,-91.89889526367188,40.44564437866211
367,766563039,78.05686187744141,50.54550170898438,-155.87324523925781,-10.96278381347656,3.43800258636475,0.46047404408455,-26.48589515686035,-106.05892944335938,37.75971603393555
368,766571372,76.86946105957031,50.15032958984375,-156.96667480468750,-9.00281810760498,2.03620696067810,-2.24899291992188,-41.79451370239258,-91.75156402587891,27.91004180908203
369,766579705,75.73706054687500,49.77149963378906,-158.00849914550781,-8.97588443756104,2.56428289413452,-2.10812759399414,-40.62625122070312,-88.68435668945312,24.49061584472656
370,766588038,74.57558441162109,49.36489105224609,-159.12124633789062,-9.55649471282959,2.93779873847961,-1.56698942184448,-38.07604217529297,-95.96842956542969,24.80728912353516
371,766596371,73.46761322021484,48.92953109741211,-160.23843383789062,-9.68912410736084,2.91758513450623,-1.33376288414001,-32.00419235229492,-98.46764373779297,25.45140266418457
372,766604704,72.39949798583984,48.51992797851562,-161.30958557128906,-9.08014011383057,2.54985427856445,-1.35074973106384,-31.91337966918945,-95.27606201171875,21.96831703186035
373,766613037,71.35930633544922,48.06415939331055,-162.42938232421875,-9.13148117065430,2.78587555885315,0.14618171751499,-24.95487213134766,-101.76211547851562,23.53963279724121
374,766621370,70.22945404052734,47.59273147583008,-163.59550476074219,-9.11051654815674,2.72602176666260,0.80899715423584,-32.20550537109375,-107.14355468750000,22.42135810852051
375,766629703,69.12554168701172,47.13788986206055,-164.69404602050781,-7.94686222076416,2.62961530685425,0.19457463920116,-35.94404983520508,-102.46702575683594,19.53740501403809
376,766638036,67.99103546142578,46.64984130859375,-165.81428527832031,-7.37465906143188,3.50321793556213,0.73297631740570,-38.31770324707031,-106.75289916992188,20.86535644531250
377,766646369,66.85639953613281,46.12719726562500,-166.95129394531250,-6.77150297164917,3.62662172317505,1.25730264186859,-37.81556320190430,-110.76148986816406,21.14636611938477
378,766654702,65.72952270507812,45.61867523193359,-168.06517028808594,-5.97768306732178,3.77873802185059,1.36988615989685,-39.59330749511719,-109.60231781005859,18.40414237976074
379,766663035,64.61696624755859,45.14406585693359,-169.12763977050781,-4.82784986495972,3.84577274322510,0.97921317815781,-43.20641326904297,-104.97035217285156,13.45373916625977
380,766671368,63.46728134155273,44.69492721557617,-170.18424987792969,-3.75436305999756,4.55756521224976,0.40916293859482,-48.72476577758789,-104.19120025634766,9.11410045623779
381,766679701,62.25010681152344,44.31352233886719,-171.22131347656250,-1.29611551761627,4.89629125595093,-0.10224563628435,-59.28171920776367,-99.64198303222656,-0.39569336175919
382,766688034,61.10478591918945,44.04119873046875,-172.14387512207031,1.28391706943512,4.80134868621826,0.43383321166039,-60.58214569091797,-85.28927612304688,-8.97428989410400
383,766696367,60.04668807983398,43.83961105346680,-172.94836425781250,2.86412477493286,5.29289197921753,1.91534006595612,-60.43800354003906,-72.21293640136719,-13.71499252319336
384,766704700,58.99621200561523,43.65392684936523,-173.70652770996094,2.98532223701477,5.48301887512207,3.12722849845886,-63.44477462768555,-67.82548522949219,-14.26319313049316
385,766713033,57.99053955078125,43.46166610717773,-174.40135192871094,2.48664355278015,5.81012964248657,3.72807502746582,-63.67695999145508,-63.35390472412109,-12.54010295867920
386,766721366,57.00983428955078,43.24791717529297,-175.04049682617188,1.09903395175934,6.86151933670044,4.57095336914062,-65.31283569335938,-60.67358779907227,-8.52875614166260
387,766729699,56.03216934204102,42.97062683105469,-175.67459106445312,-0.00484901480377,7.01829099655151,4.87223672866821,-65.77611541748047,-64.46927642822266,-3.52213692665100
388,766738032,55.03299331665039,42.67364120483398,-176.30537414550781,-0.32461321353912,6.52426099777222,5.19346284866333,-68.72261047363281,-65.76724243164062,-2.29710268974304
389,766746365,54.04410552978516,42.36520767211914,-176.88635253906250,-0.30326563119888,6.52214956283569,5.29238224029541,-72.00631713867188,-63.10521697998047,-0.29868996143341
390,766754698,53.05036926269531,42.03893280029297,-177.42683410644531,-0.92942345142365,7.00853681564331,5.06104373931885,-75.93821716308594,-61.70433807373047,2.63814735412598
391,766763031,52.01202011108398,41.71538543701172,-177.92140197753906,-1.59407341480255,7.63138532638550,3.90945005416870,-85.44159698486328,-58.47224426269531,3.30112981796265
392,766771364,50.94379425048828,41.42812728881836,-178.34797668457031,-1.81966066360474,8.02244186401367,3.05068445205688,-94.48665618896484,-51.20409393310547,2.75756716728210
393,766779697,49.85593414306641,41.19843673706055,-178.68199157714844,-1.62921524047852,8.11057853698730,2.30151486396790,-104.53661346435547,-40.54545211791992,1.41557359695435
394,766788030,48.78215789794922,41.02722549438477,-178.92878723144531,-1.31165802478790,8.21406364440918,2.16477417945862,-109.66893005371094,-30.08441543579102,0.62218964099884
395,766796363,47.75964355468750,40.89977264404297,-179.11471557617188,-1.45763194561005,7.87496662139893,2.86411595344543,-108.53340148925781,-22.53249740600586,-0.43301331996918
396,766804696,46.77834701538086,40.78520584106445,-179.28973388671875,-2.15368390083313,7.32438087463379,3.98920297622681,-104.33639526367188,-20.76533317565918,-1.14594101905823
397,766813029,45.87387466430664,40.68687820434570,-179.45401000976562,-2.26436924934387,6.19369506835938,4.51742029190063,-96.12831878662109,-18.73295021057129,-2.41431593894958
398,766821362,45.07390594482422,40.60371780395508,-179.61433410644531,-2.35491228103638,5.49765729904175,5.13396930694580,-83.79285430908203,-17.15409278869629,-3.62441205978394
399,766829695,44.36506271362305,40.54253005981445,-179.77648925781250,-2.43621540069580,5.54965591430664,5.29230499267578,-72.86112213134766,-15.39694595336914,-5.96763324737549
400,766838028,43.76763916015625,40.49182891845703,-179.95874023437500,-2.68931460380554,6.17955684661865,6.18016862869263,-57.81181335449219,-15.66094970703125,-8.24634933471680
401,766846361,43.24744796752930,40.44946670532227,179.84782409667969,-2.72648358345032,6.67087888717651,6.52378034591675,-47.81112670898438,-15.62361717224121,-9.94131660461426
402,766854694,42.80892562866211,40.45279312133789,179.69596862792969,-2.39447474479675,7.54734182357788,6.61475753784180,-41.12305831909180,-8.86971282958984,-10.97602748870850
403,766863027,42.44356918334961,40.47872543334961,179.56774902343750,-3.05072641372681,8.95258045196533,7.69146728515625,-34.31266784667969,-5.41629028320312,-11.35380649566650
404,766871360,42.10375976562500,40.55832290649414,179.47772216796875,-2.87292265892029,9.98784351348877,7.73014593124390,-34.09323120117188,1.88340437412262,-13.11150932312012
405,766879693,41.81238555908203,40.72127532958984,179.47534179687500,-3.33221197128296,10.32653331756592,7.61419773101807,-35.23499298095703,14.61856365203857,-13.86759090423584
406,766888026,41.58231353759766,40.92625427246094,179.53929138183594,-4.20147562026978,10.07091999053955,7.79420900344849,-32.98457717895508,22.61047554016113,-12.69786643981934
407,766896359,41.33247375488281,41.19744110107422,179.64466857910156,-4.71006965637207,9.20786666870117,7.35842084884644,-38.74261474609375,30.92530441284180,-15.03297805786133
408,766904692,41.09928512573242,41.53627777099609,179.80838012695312,-4.72198820114136,8.48696804046631,6.42163276672363,-41.34716415405273,40.71383666992188,-16.41992950439453
409,766913025,40.90257644653320,41.90008544921875,179.96673583984375,-6.17314004898071,7.85049438476562,7.59725952148438,-36.70471572875977,42.47655868530273,-18.57065773010254
410,766921358,40.75745773315430,42.19537353515625,-179.94723510742188,-8.27927589416504,6.72423505783081,9.23633766174316,-24.72246551513672,32.25883865356445,-18.11982345581055
411,766929691,40.65079116821289,42.37557220458984,-179.98129272460938,-10.15583133697510,5.66225862503052,10.64720439910889,-10.50450706481934,14.64347362518311,-17.02842903137207
412,766938024,40.61536026000977,42.42821884155273,179.89892578125000,-10.98449420928955,6.33856439590454,12.21390151977539,5.06737995147705,-1.66615509986877,-12.91792678833008
413,766946357,40.61032485961914,42.41422653198242,179.73236083984375,-11.15314102172852,6.79835939407349,12.94499588012695,12.42381763458252,-10.65865039825439,-10.74079513549805
414,766954690,40.61071014404297,42.38187026977539,179.52644348144531,-11.20178604125977,7.21066093444824,13.19362640380859,16.36229133605957,-14.34433841705322,-12.06297874450684
415,766963023,40.55237960815430,42.35103225708008,179.26696777343750,-10.83611583709717,7.55262660980225,12.94356155395508,13.52946090698242,-17.55477905273438,-15.69915390014648
416,766971356,40.45708084106445,42.33723831176758,178.98817443847656,-10.33765220642090,7.79986190795898,12.56821155548096,10.78023242950439,-16.80440902709961,-18.45967864990234
417,766979689,40.36967086791992,42.32136917114258,178.69694519042969,-9.72243022918701,7.45846462249756,11.91652679443359,12.59080123901367,-17.97923278808594,-19.07065773010254
418,766988022,40.34177780151367,42.30217742919922,178.41159057617188,-8.60706329345703,7.12985372543335,10.66125202178955,19.25179100036621,-17.93064498901367,-18.44062614440918
419,766996355,40.47184753417969,42.28871154785156,178.17245483398438,-8.07418060302734,6.93353128433228,9.71695518493652,34.61746978759766,-14.44114589691162,-15.85797500610352
420,767004688,40.75164794921875,42.27707672119141,177.96902465820312,-8.27050304412842,7.46604633331299,9.48116874694824,49.71487808227539,-12.24353122711182,-13.55831241607666
421,767013021,41.11503982543945,42.26558303833008,177.77699279785156,-8.93879604339600,7.95036888122559,9.35283946990967,58.65423583984375,-11.99162483215332,-12.61295223236084
422,767021354,41.53800964355469,42.23704147338867,177.57714843750000,-9.74858665466309,8.31464672088623,9.32332801818848,66.43130493164062,-14.07333755493164,-11.70201206207275
423,767029687,42.00975799560547,42.23660659790039,177.35263061523438,-10.16328811645508,8.08221244812012,8.09609985351562,74.43292999267578,-12.73558998107910,-15.62240695953369
424,767038020,42.54327392578125,42.25680541992188,177.11582946777344,-10.73915004730225,8.88438701629639,7.79631567001343,82.83303070068359,-11.76064586639404,-17.98771095275879
425,767046353,43.03687286376953,42.26891326904297,176.80491638183594,-11.45321273803711,8.48213768005371,6.65506792068481,83.87330627441406,-17.46913337707520,-21.88480186462402
426,767054686,43.60683441162109,42.23763656616211,176.44842529296875,-11.45936584472656,8.76511669158936,5.84148025512695,96.70935058593750,-24.23423194885254,-21.09443473815918
427,767063019,44.22232818603516,42.10179138183594,176.00286865234375,-11.21817779541016,7.45017337799072,3.97430205345154,109.44515991210938,-38.65530014038086,-18.05413246154785
428,767071352,45.03423309326172,41.86634063720703,175.49496459960938,-10.30312728881836,7.20316600799561,3.32507729530334,137.85969543457031,-51.40484237670898,-13.21133422851562
429,767079685,46.19043731689453,41.51997756958008,174.92185974121094,-10.65254688262939,6.78637742996216,4.29191493988037,184.04139709472656,-65.55477905273438,-6.85306262969971
430,767088018,47.60245513916016,41.20960235595703,174.31832885742188,-10.23928642272949,6.60626077651978,4.05538225173950,216.85914611816406,-64.91977691650391,-10.58187103271484
431,767096351,48.77306365966797,40.77088928222656,173.50601196289062,-11.66859626770020,5.53633594512939,1.51674997806549,204.04176330566406,-89.46406555175781,-10.64256477355957
432,767104684,49.79673385620117,40.35511016845703,172.54806518554688,-10.46822643280029,4.10935544967651,-2.11627459526062,197.20608520507812,-98.32370758056641,-19.95345115661621
433,767113017,50.91860580444336,39.93427276611328,171.53068542480469,-9.72650814056396,3.97650313377380,-3.71335816383362,212.88661193847656,-103.86756896972656,-21.28869247436523
434,767121350,51.99442672729492,39.56820678710938,170.44261169433594,-10.63522243499756,2.82413029670715,-2.12132048606873,212.14384460449219,-105.67212677001953,-28.83072471618652
435,767129683,53.19670486450195,39.16197967529297,169.22270202636719,-10.58280086517334,2.44821906089783,-3.47226738929749,236.66687011718750,-119.20443725585938,-30.79633712768555
436,767138016,54.47586059570312,38.81694412231445,167.91816711425781,-9.35476207733154,2.29658389091492,-3.84428548812866,251.49961853027344,-122.45682525634766,-39.07503509521484
437,767146349,55.97942352294922,38.41461181640625,166.51820373535156,-10.39077663421631,2.28814053535461,-4.28311538696289,284.82415771484375,-135.14952087402344,-35.84371185302734
438,767154682,57.59323501586914,37.90387725830078,164.93429565429688,-11.80825519561768,2.16654324531555,-4.67859077453613,310.64056396484375,-158.39903259277344,-31.22666168212891
439,767163015,59.32314300537109,37.35821533203125,163.20089721679688,-10.96575641632080,-1.49327421188354,-5.46052598953247,334.04061889648438,-174.54570007324219,-30.98854446411133
440,767171348,61.51690673828125,36.90483856201172,161.42718505859375,-5.16656923294067,-3.83305764198303,-7.32888936996460,391.13693237304688,-174.43928527832031,-36.94602203369141
441,767179681,64.03395080566406,36.67061614990234,159.63920593261719,-0.51527738571167,-5.80819511413574,-9.15086746215820,430.08267211914062,-165.46118164062500,-54.26234817504883
442,767188014,66.97203826904297,36.59722518920898,157.92668151855469,-0.38542947173119,-6.27337503433228,-11.27010631561279,474.74218750000000,-153.52828979492188,-61.01265335083008
443,767196347,70.37902832031250,36.65642166137695,156.42231750488281,-1.34708940982819,-1.67779207229614,-11.04429244995117,515.91345214843750,-132.43579101562500,-59.66851806640625
444,767204680,74.03050231933594,36.68460464477539,155.06602478027344,-1.88058471679688,4.78776645660400,-11.92707252502441,534.65667724609375,-123.40004730224609,-43.40366363525391
445,767213013,77.69386291503906,36.66765213012695,153.74394226074219,-2.84047961235046,11.26708507537842,-12.47812366485596,533.91943359375000,-123.69654083251953,-29.74723243713379
446,767221346,81.29851531982422,36.71588897705078,152.33940124511719,-5.02799892425537,12.91904449462891,-14.73794937133789,532.81915283203125,-131.64190673828125,-30.96946525573730
447,767229679,84.78836822509766,36.83129501342773,150.89698791503906,-4.67807674407959,11.24433994293213,-15.65344619750977,521.54156494140625,-136.11405944824219,-30.75451850891113
448,767238012,88.25146484375000,37.01692962646484,149.47901916503906,-2.95164585113525,7.38473224639893,-19.45916175842285,516.74981689453125,-134.70916748046875,-30.69999694824219
449,767246345,91.74654388427734,36.89355468750000,147.82579040527344,-14.01549911499023,17.96325302124023,-12.24198722839355,538.22668457031250,-158.35652160644531,14.17135906219482
450,767254678,94.66755676269531,36.75500869750977,145.70225524902344,-27.71590805053711,10.50010013580322,-17.13181304931641,502.79382324218750,-202.55828857421875,27.38335800170898
451,767263011,97.54630279541016,36.65115356445312,143.24092102050781,-40.19387435913086,11.10609531402588,-22.04041481018066,520.75537109375000,-234.45979309082031,37.55773544311523
452,767271344,100.23199462890625,36.80543136596680,140.14974975585938,-43.10648345947266,13.43757820129395,-19.30278587341309,542.69116210937500,-296.98556518554688,28.02739715576172
453,767279677,102.90132904052734,36.96472930908203,136.82304382324219,-41.58033370971680,18.46471977233887,-19.29293632507324,559.43847656250000,-316.51193237304688,44.67868423461914
454,767288010,105.89325714111328,37.20141601562500,133.60736083984375,-37.55834960937500,14.64404678344727,-24.52240562438965,591.21807861328125,-305.10165405273438,48.42233657836914
455,767296343,109.22568511962891,37.64735031127930,130.52247619628906,-34.82876205444336,11.13494396209717,-27.29299926757812,623.40844726562500,-296.54583740234375,38.67052459716797
456,767304676,112.69863128662109,38.19396209716797,127.38529968261719,-34.61158752441406,13.04005527496338,-30.75951004028320,646.49169921875000,-300.82241821289062,46.37796401977539
457,767313009,116.23565673828125,38.80080032348633,124.05963897705078,-30.59858703613281,13.62887954711914,-32.35739135742188,672.35729980468750,-314.34045410156250,62.48837661743164
458,767321342,119.80735015869141,39.46802520751953,120.65832519531250,-26.21748161315918,13.16139316558838,-33.87227249145508,685.70349121093750,-316.98950195312500,77.47439575195312
459,767329675,123.70642089843750,40.32376861572266,117.50712585449219,-19.46326828002930,6.68949794769287,-37.79988861083984,708.82427978515625,-300.21691894531250,67.16130828857422
460,767338008,127.87113189697266,41.34580230712891,114.46224212646484,-17.80489540100098,4.54908609390259,-38.82722091674805,736.88311767578125,-295.39865112304688,64.14512634277344
461,767346341,132.06593322753906,42.50946044921875,111.25153350830078,-18.26539611816406,5.92429113388062,-37.94429397583008,760.31115722656250,-309.29559326171875,76.54938507080078
462,767354674,136.23696899414062,43.82119369506836,107.79103088378906,-14.19989013671875,7.47346496582031,-38.10676193237305,784.08813476562500,-326.88027954101562,97.49013519287109
463,767363007,140.65315246582031,45.26439666748047,104.37581634521484,-6.46857309341431,8.35275077819824,-39.19471359252930,815.67053222656250,-322.12625122070312,105.76181030273438
464,767371340,145.49772644042969,46.70902633666992,101.23191833496094,-2.16600394248962,7.80139875411987,-38.48756408691406,850.84283447265625,-294.84683227539062,107.43920135498047
465,767379673,150.37477111816406,48.10891723632812,98.17926788330078,-1.26294815540314,8.56328964233398,-40.41256713867188,854.42401123046875,-273.88784790039062,120.38226318359375
466,767388006,155.01196289062500,49.64612579345703,95.02559661865234,0.48331463336945,9.72556495666504,-36.85029602050781,839.79907226562500,-276.64248657226562,138.30752563476562
467,767396339,158.96672058105469,51.53753280639648,91.23271942138672,4.89469575881958,9.69825935363770,-32.06201171875000,825.71728515625000,-321.73757934570312,176.73635864257812
468,767404672,162.58673095703125,53.69095611572266,87.38269042968750,13.39425373077393,5.85880565643311,-37.20507049560547,799.93939208984375,-334.75299072265625,181.26083374023438
469,767413005,166.78497314453125,55.28889846801758,83.74449920654297,25.34090805053711,5.93419551849365,-42.66657638549805,858.67382812500000,-251.78323364257812,193.44052124023438
470,767421338,170.33216857910156,57.06663894653320,79.34400177001953,24.12614059448242,14.50866508483887,-31.73372268676758,862.99023437500000,-265.95657348632812,246.91751098632812
471,767429671,173.55981445312500,59.16749954223633,74.50495910644531,22.11673736572266,8.54761695861816,-31.84645652770996,879.89172363281250,-292.36959838867188,267.90267944335938
472,767438004,176.35470581054688,61.14669418334961,69.11811065673828,23.46361351013184,3.83383297920227,-33.49809265136719,894.97186279296875,-263.55459594726562,300.31640625000000
473,767446337,178.43122863769531,63.13554382324219,63.05625915527344,20.14596557617188,-0.16989886760712,-31.51482582092285,891.83648681640625,-253.53471374511719,328.23254394531250
474,767454670,-179.87757873535156,65.16751098632812,56.31700897216797,15.90478610992432,-0.46106719970703,-34.05205154418945,929.83343505859375,-247.11174011230469,350.03170776367188
475,767463003,-178.94750976562500,67.12192535400391,48.88589096069336,13.01847934722900,-1.17784595489502,-39.37777328491211,926.75067138671875,-230.32020568847656,362.48394775390625
476,767471336,-178.77284240722656,68.88650512695312,40.63805389404297,14.75712013244629,-1.54473829269409,-45.53194427490234,937.89294433593750,-203.35873413085938,375.18634033203125
477,767479669,-179.44413757324219,70.39752960205078,31.54080009460449,18.80773925781250,1.42678809165955,-48.77951049804688,942.56427001953125,-174.77284240722656,381.88403320312500
478,767488002,179.21092224121094,71.64256286621094,21.74657440185547,20.89697074890137,3.14355731010437,-47.17976379394531,949.34057617187500,-149.67317199707031,382.19989013671875
479,767496335,177.40815734863281,72.70360565185547,11.35063457489014,20.91317749023438,6.20402526855469,-45.20007324218750,970.94604492187500,-137.91473388671875,377.23703002929688
480,767504668,175.38722229003906,73.68901062011719,0.52468144893646,20.04313659667969,7.46966552734375,-45.12069320678711,1000.47576904296875,-141.59791564941406,367.68972778320312
481,767513001,172.90679931640625,74.63384246826172,-11.06177711486816,19.97012901306152,6.55055904388428,-46.53180694580078,1039.62536621093750,-150.78413391113281,365.12915039062500
482,767521334,169.89262390136719,75.45006561279297,-23.51502609252930,20.47402000427246,6.77191543579102,-49.38173675537109,1081.37463378906250,-154.85232543945312,367.13439941406250
483,767529667,166.20819091796875,76.00414276123047,-36.93708038330078,22.40450859069824,7.72771072387695,-53.26362228393555,1118.52124023437500,-146.59693908691406,373.77398681640625
484,767538000,162.33271789550781,76.13846588134766,-50.79997253417969,24.23859024047852,8.62031364440918,-55.28177642822266,1148.80908203125000,-125.05736541748047,381.62899780273438
485,767546333,158.61485290527344,75.89284515380859,-64.67355346679688,25.86468887329102,11.29447555541992,-57.12489318847656,1169.06164550781250,-106.49357604980469,387.93731689453125
486,767554666,155.18908691406250,75.45121765136719,-78.37113189697266,24.81763458251953,14.00581550598145,-58.06839370727539,1180.54467773437500,-112.45141601562500,395.83114624023438
487,767562999,152.17727661132812,74.91854095458984,-91.80265808105469,20.16320800781250,16.92063713073730,-57.49171066284180,1196.49755859375000,-125.34980773925781,396.66467285156250
488,767571332,149.90451049804688,74.31321716308594,-104.62423706054688,16.91888999938965,19.20454597473145,-55.18199157714844,1209.55102539062500,-135.86268615722656,393.68161010742188
489,767579665,148.24858093261719,73.61200714111328,-116.83735656738281,17.45483398437500,19.80783271789551,-53.36304473876953,1209.47937011718750,-135.88583374023438,389.61233520507812
490,767587998,147.54515075683594,72.84318542480469,-128.00729370117188,18.43870544433594,20.00557136535645,-52.39537429809570,1197.57287597656250,-129.13908386230469,378.57385253906250
491,767596331,147.58177185058594,72.01569366455078,-138.31500244140625,18.89991378784180,19.23490905761719,-52.45865631103516,1183.22119140625000,-116.48446655273438,367.65509033203125
492,767604664,148.30741882324219,71.14630126953125,-147.83419799804688,19.85861015319824,18.32476234436035,-53.02911376953125,1169.26928710937500,-104.63520050048828,363.55059814453125
493,767612997,149.19552612304688,70.23563385009766,-157.12936401367188,21.94301605224609,16.45077705383301,-53.09934997558594,1158.82495117187500,-97.91375732421875,371.34756469726562
494,767621330,150.21553039550781,69.24629211425781,-166.34750366210938,24.53322029113770,15.38563156127930,-53.12344360351562,1158.42456054687500,-91.94477844238281,393.09289550781250
495,767629663,151.15592956542969,68.18637084960938,-175.73231506347656,25.28768157958984,16.07376480102539,-54.84133911132812,1161.78259277343750,-89.29406738281250,418.05310058593750
496,767637996,152.23236083984375,67.15180969238281,174.97224426269531,23.89795494079590,17.59124565124512,-54.58505630493164,1159.14306640625000,-92.61677551269531,434.58328247070312
497,767646329,153.39857482910156,66.19618988037109,165.78410339355469,22.24975585937500,19.18451690673828,-54.09103393554688,1151.95739746093750,-97.47539520263672,440.14035034179688
498,767654662,154.85154724121094,65.36866760253906,156.89379882812500,20.17694282531738,19.95971679687500,-52.87300872802734,1145.40734863281250,-102.21061706542969,439.66610717773438
499,767662995,156.27742004394531,64.70914459228516,147.95352172851562,17.72887802124023,20.28640365600586,-51.79734039306641,1143.26269531250000,-115.19806671142578,444.38790893554688
500,767671328,157.56712341308594,64.34396362304688,138.85609436035156,15.47849750518799,18.52318572998047,-51.36113357543945,1138.48425292968750,-143.90803527832031,451.57940673828125
501,767679661,158.47755432128906,64.27024078369141,129.37983703613281,15.65673446655273,14.87959098815918,-52.18108367919922,1133.51403808593750,-176.14601135253906,459.96539306640625
502,767687994,159.11497497558594,64.47528076171875,119.57091522216797,17.68524360656738,10.64365386962891,-54.04365539550781,1136.06286621093750,-206.82591247558594,467.98785400390625
503,767696327,159.53022766113281,64.92092132568359,109.47148895263672,20.33735847473145,8.26835346221924,-56.13204193115234,1145.07006835937500,-232.61267089843750,465.19708251953125
504,767704660,159.93273925781250,65.55603027343750,99.31358337402344,22.91797828674316,7.55713844299316,-58.82528305053711,1153.62841796875000,-247.83238220214844,454.67147827148438
505,767712993,160.27743530273438,66.26309967041016,89.13152313232422,24.84899711608887,9.22834014892578,-60.34505844116211,1156.37207031250000,-249.10301208496094,439.59127807617188
506,767721326,160.69270324707031,67.02037048339844,79.13491058349609,25.41132354736328,13.42347621917725,-59.88848114013672,1149.72766113281250,-243.99380493164062,419.94644165039062
507,767729659,160.89012145996094,67.84309387207031,69.05101776123047,24.67927169799805,17.57814025878906,-58.25821304321289,1140.68811035156250,-245.58357238769531,405.55627441406250
508,767737992,160.79258728027344,68.70667266845703,58.84145355224609,23.39229965209961,20.95018768310547,-54.83880996704102,1125.18713378906250,-246.22171020507812,396.10015869140625
509,767746325,160.31846618652344,69.55264282226562,48.56129455566406,22.01037406921387,23.54241371154785,-50.82121658325195,1095.40295410156250,-241.53240966796875,380.05407714843750
510,767754658,159.50881958007812,70.37376403808594,38.32968521118164,20.56224822998047,23.81286048889160,-47.74264907836914,1055.30554199218750,-236.64993286132812,362.63732910156250
511,767762991,158.13743591308594,71.15849304199219,27.92076301574707,20.05128479003906,22.26610946655273,-44.54222869873047,1014.42791748046875,-235.92703247070312,349.03515625000000
512,767771324,156.25270080566406,71.84875488281250,17.39399528503418,20.98699951171875,19.40029335021973,-42.42908859252930,971.44909667968750,-231.16078186035156,336.64230346679688
513,767779657,153.96545410156250,72.42904663085938,6.80156612396240,21.98083305358887,17.02126121520996,-40.92780303955078,934.52593994140625,-226.79995727539062,325.38574218750000
514,767787990,151.19714355468750,72.88154602050781,-4.02445507049561,22.79177474975586,16.33112716674805,-38.96207427978516,907.04162597656250,-226.58943176269531,319.59048461914062
515,767796323,147.90876770019531,73.17745208740234,-15.18640708923340,22.36695289611816,15.69483566284180,-34.90927886962891,886.19396972656250,-228.24351501464844,318.24499511718750
516,767804656,144.14466857910156,73.32939910888672,-26.66725540161133,19.95934486389160,15.25943279266357,-29.90451431274414,867.28594970703125,-236.48483276367188,318.15197753906250
517,767812989,140.03703308105469,73.38282012939453,-38.33151626586914,16.97052001953125,14.48678112030029,-27.11896705627441,847.41436767578125,-251.44863891601562,313.01980590820312
518,767821322,135.80705261230469,73.30142211914062,-49.85214614868164,14.76186656951904,12.68710517883301,-27.63901329040527,816.13159179687500,-258.71997070312500,301.16699218750000
519,767829655,131.71908569335938,73.04286193847656,-60.88036727905273,13.74063682556152,11.39847660064697,-29.73410606384277,775.86401367187500,-254.85894775390625,286.45770263671875
520,767837988,128.27183532714844,72.56549835205078,-70.88246917724609,14.14496898651123,11.96991157531738,-30.45187568664551,732.61151123046875,-234.74613952636719,271.03271484375000
521,767846321,125.72800445556641,71.91515350341797,-79.54345703125000,15.15696620941162,13.50776100158691,-29.10904121398926,683.67285156250000,-206.75912475585938,253.75228881835938
522,767854654,123.90641021728516,71.13840484619141,-87.00169372558594,15.85597419738770,15.71940803527832,-25.77022552490234,629.34167480468750,-180.48597717285156,239.01208496093750
523,767862987,122.41172027587891,70.30146026611328,-93.70285797119141,14.58722782135010,17.19626808166504,-20.43338012695312,579.27520751953125,-167.16111755371094,228.53729248046875
524,767871320,121.04290771484375,69.47309875488281,-99.93927764892578,12.56589126586914,17.70049476623535,-14.81568908691406,538.06823730468750,-166.42018127441406,219.12915039062500
525,767879653,119.64076232910156,68.67638397216797,-105.91008758544922,10.41774940490723,17.58377456665039,-10.77917766571045,499.95684814453125,-173.40109252929688,212.40240478515625
526,767887986,117.99320220947266,67.89164733886719,-111.79809570312500,8.62431049346924,18.29418754577637,-8.18951320648193,457.67547607421875,-184.61360168457031,208.91053771972656
527,767896319,116.13952636718750,67.08699035644531,-117.61594390869141,8.39695549011230,18.19951820373535,-7.38429832458496,422.10458374023438,-193.86569213867188,206.86109924316406
528,767904652,114.73686218261719,66.23443603515625,-122.90943145751953,7.93064451217651,19.12859344482422,-7.82600593566895,414.51522827148438,-183.10688781738281,199.76544189453125
529,767912985,113.29531097412109,65.29076385498047,-127.78486633300781,0.31836250424385,19.32122802734375,-4.90795898437500,359.45703125000000,-174.11509704589844,201.51899719238281
530,767921318,111.55485534667969,64.00487518310547,-133.12449645996094,-10.65539455413818,19.11387825012207,-2.32990336418152,369.17895507812500,-195.59580993652344,247.33099365234375
531,767929651,110.58029937744141,61.60326766967773,-138.84779357910156,-28.26578521728516,29.31017303466797,-0.70034778118134,493.56423950195312,-189.18539428710938,380.88522338867188
532,767937984,108.83391571044922,58.15413665771484,-144.04238891601562,-103.17384338378906,63.81304168701172,6.40592956542969,329.35174560546875,-154.82879638671875,494.19335937500000
533,767946317,100.44515228271484,56.59444808959961,-154.84388732910156,-124.59274291992188,72.94873046875000,4.72877883911133,84.89927673339844,-628.93463134765625,356.96368408203125
534,767954650,91.64509582519531,55.38142776489258,-165.67491149902344,-12.45507335662842,-8.07202911376953,-11.06004142761230,21.94413375854492,-706.79473876953125,220.03308105468750
535,767962983,88.93766021728516,54.46790313720703,-170.52717590332031,-2.46107506752014,-28.12706375122070,-11.48051357269287,151.26342773437500,-333.77905273437500,110.60698699951172
536,767971316,85.91305541992188,53.51590728759766,-176.39860534667969,-27.55030250549316,-18.35004425048828,-8.87933254241943,206.67420959472656,-418.62268066406250,94.76200103759766
537,767979649,83.93122100830078,52.70311355590820,178.26217651367188,-21.80874443054199,-15.81449890136719,-11.62491893768311,274.22555541992188,-391.45617675781250,62.40557479858398
538,767987982,83.10994720458984,51.90499114990234,173.36544799804688,-18.50420951843262,0.26705527305603,1.00162959098816,365.98452758789062,-367.58566284179688,53.95023727416992
539,767996315,81.65913391113281,50.96030807495117,168.88336181640625,-10.40345573425293,9.01324462890625,-10.83735466003418,246.03089904785156,-347.13357543945312,67.22811889648438
540,768004648,81.61018371582031,49.72628784179688,166.00637817382812,-6.87790203094482,12.52485942840576,-16.61562538146973,259.47912597656250,-239.31469726562500,113.79227447509766
541,768012981,81.71527862548828,48.53839111328125,163.01855468750000,-13.60022163391113,13.56526565551758,-5.24695062637329,283.30828857421875,-252.58796691894531,106.39720916748047
542,768021314,81.62828063964844,47.58536529541016,160.09251403808594,-14.85021209716797,9.61626625061035,2.95208120346069,250.29991149902344,-248.56553649902344,78.54051971435547
543,768029647,81.58396148681641,46.75568389892578,157.33016967773438,-13.21828174591064,8.61030292510986,2.91298365592957,237.33883666992188,-237.25479125976562,64.94694519042969
544,768037980,81.33979797363281,46.03922271728516,154.60087585449219,-12.01496887207031,9.89004325866699,-3.75364303588867,207.42263793945312,-235.91963195800781,50.83798980712891
545,768046313,81.04315948486328,45.43718719482422,152.07009887695312,-7.87167882919312,5.05729770660400,-8.37110137939453,181.44630432128906,-220.31851196289062,38.32917404174805
546,768054646,81.37311553955078,44.82027053833008,149.81501770019531,-6.23154783248901,2.67962837219238,-7.67555046081543,230.90452575683594,-199.80526733398438,43.37965393066406
547,768062979,82.01241302490234,44.42092895507812,147.76998901367188,-6.02282381057739,6.32653570175171,-2.41697573661804,248.63973999023438,-179.55415344238281,21.54628562927246
548,768071312,82.84925079345703,44.17696380615234,145.86753845214844,-8.52445316314697,12.42936325073242,2.28739976882935,259.41519165039062,-165.61447143554688,6.86375284194946
549,768079645,83.88617706298828,43.88938140869141,143.95042419433594,-14.07108020782471,17.58303451538086,1.70713067054749,283.86065673828125,-168.10281372070312,14.58918190002441
550,768087978,84.82180786132812,43.46513748168945,141.83221435546875,-19.62411880493164,15.35801124572754,-3.67989253997803,287.33807373046875,-187.77215576171875,31.98683929443359
551,768096311,85.70794677734375,42.84984588623047,139.78710937500000,-25.00713348388672,12.16919136047363,-3.96901226043701,273.74896240234375,-184.30249023437500,58.16740798950195
552,768104644,86.30157470703125,42.20164108276367,137.71493530273438,-27.78306007385254,10.27955055236816,0.83879268169403,238.85897827148438,-188.02146911621094,64.19124603271484
553,768112977,86.20242309570312,41.74498748779297,135.09626770019531,-24.61863136291504,10.48564338684082,0.05374702811241,197.79101562500000,-236.53358459472656,38.84132766723633
554,768121310,86.12723541259766,41.56555557250977,132.43579101562500,-24.56610298156738,14.26230716705322,-6.54997539520264,202.69671630859375,-239.26130676269531,5.01465129852295
555,768129643,86.68123626708984,41.81096267700195,129.73988342285156,-16.68255424499512,14.35816955566406,-1.98522198200226,281.18920898437500,-239.06253051757812,-45.17534255981445
556,768137976,86.51191711425781,42.32695770263672,126.95587158203125,-6.31357097625732,3.08833336830139,-11.06828689575195,203.07820129394531,-243.67782592773438,-77.15717315673828
557,768146309,86.49119567871094,42.96006393432617,124.48957061767578,-6.17578840255737,-1.73880004882812,-8.48286437988281,197.52815246582031,-212.47625732421875,-89.58391571044922
558,768154642,87.05629730224609,43.62548065185547,121.88353729248047,-13.68390083312988,1.10794174671173,-7.34462881088257,281.75558471679688,-222.62031555175781,-92.97559356689453
559,768162975,87.98884582519531,44.31076431274414,119.35630035400391,-14.88220214843750,5.58449697494507,-3.89361023902893,322.00009155273438,-214.31234741210938,-92.22166442871094
560,768171308,89.02776336669922,44.87205123901367,116.62779235839844,-16.14010238647461,10.22922039031982,-1.58562743663788,354.08493041992188,-231.13809204101562,-74.02935791015625
561,768179641,90.06689453125000,45.27514648437500,113.71217346191406,-16.65517616271973,10.35767459869385,-4.56517744064331,371.90658569335938,-246.55039978027344,-50.71291732788086
562,768187974,91.12196350097656,45.69787216186523,110.77738952636719,-18.76409721374512,3.69177556037903,-5.83269548416138,377.23007202148438,-247.26730346679688,-48.52014923095703
563,768196307,92.21760559082031,46.23522186279297,107.79000854492188,-20.00017738342285,0.69708150625229,-8.16488456726074,388.75250244140625,-250.75671386718750,-57.81962203979492
564,768204640,93.40598297119141,46.83903503417969,104.62354278564453,-21.09002494812012,0.11638957262039,-6.08840847015381,417.88577270507812,-264.47332763671875,-59.81784820556641
565,768212973,94.51708984375000,47.37608337402344,101.15995025634766,-18.80638504028320,2.73954606056213,-6.68766546249390,437.37991333007812,-286.48321533203125,-45.36947250366211
566,768221306,95.51535797119141,47.83449935913086,97.43807220458984,-14.76251220703125,4.96908760070801,-9.34700202941895,449.12347412109375,-304.60943603515625,-28.64226150512695
567,768229639,96.39678192138672,48.25094985961914,93.45084381103516,-14.69277191162109,6.53777885437012,-9.84964656829834,461.12503051757812,-323.16439819335938,-17.12522697448730
568,768237972,97.06903839111328,48.64413070678711,89.16162109375000,-16.03694534301758,5.57906818389893,-13.68072128295898,465.35702514648438,-344.39318847656250,-6.95179700851440
569,768246305,97.58783721923828,49.06150436401367,84.59048461914062,-17.67985153198242,1.77281999588013,-16.66822433471680,474.86453247070312,-364.18344116210938,-4.24322271347046
570,768254638,97.99298858642578,49.53858947753906,79.65546417236328,-17.58791732788086,2.15721178054810,-15.44006633758545,497.08236694335938,-390.16714477539062,-4.41151666641235
571,768262971,98.68827056884766,50.02683258056641,74.63945770263672,-15.85858154296875,6.09617185592651,-16.24895286560059,542.60626220703125,-392.86181640625000,-2.19048619270325
572,768271304,99.69106292724609,50.59245681762695,69.68585205078125,-15.57969856262207,7.72067737579346,-22.04328536987305,577.22619628906250,-385.40093994140625,-6.33448934555054
573,768279637,101.00717926025391,51.28008270263672,64.82394409179688,-15.73923873901367,5.64558029174805,-25.13090705871582,610.46752929687500,-376.35379028320312,-15.70842742919922
574,768287970,102.54071044921875,52.10343170166016,59.90662765502930,-16.33757209777832,7.24606132507324,-22.73262977600098,646.47125244140625,-378.10116577148438,-21.97355461120605
575,768296303,104.10712432861328,53.03687286376953,54.89782333374023,-16.72960472106934,9.61053562164307,-23.29441642761230,664.79644775390625,-381.15264892578125,-25.37883377075195
576,768304636,105.74251556396484,54.07236480712891,49.95413589477539,-17.37542343139648,10.37678432464600,-26.37459182739258,672.83685302734375,-372.37142944335938,-29.12445640563965
577,768312969,107.31114196777344,55.17169189453125,44.97545623779297,-17.54349327087402,12.15317249298096,-28.73404121398926,674.89007568359375,-368.98165893554688,-28.63564109802246
578,768321302,108.84461975097656,56.35641860961914,40.03484725952148,-16.47130393981934,12.13879013061523,-32.29275131225586,673.51647949218750,-361.07583618164062,-31.41459465026855
579,768329635,110.45320892333984,57.61818695068359,35.19714736938477,-15.86420059204102,11.64257812500000,-32.43815994262695,679.37091064453125,-348.61795043945312,-36.79585266113281
580,768337968,112.15521240234375,58.92807388305664,30.58072090148926,-14.97100543975830,9.12791061401367,-33.17187500000000,674.71881103515625,-328.47546386718750,-40.34717178344727
581,768346301,114.13598632812500,60.12579345703125,26.29687881469727,-16.09807586669922,8.19300365447998,-31.16528511047363,680.29083251953125,-296.04641723632812,-30.26542282104492
582,768354634,116.34943389892578,61.10895156860352,22.45623588562012,-21.62186813354492,7.61385774612427,-28.07511138916016,666.42541503906250,-254.88870239257812,-9.98050594329834
583,768362967,118.07518768310547,62.01235198974609,18.54570579528809,-31.44087219238281,7.24352216720581,-31.20194053649902,619.27941894531250,-248.13172912597656,5.19208145141602
584,768371300,120.22380065917969,63.21573638916016,14.80888175964355,-23.29609298706055,4.38500022888184,-39.29433059692383,655.16778564453125,-250.56044006347656,-25.21174049377441
585,768379633,123.24846649169922,64.42782592773438,11.62412548065186,-2.76466846466064,4.00561141967773,-38.15879058837891,705.47869873046875,-219.74386596679688,-35.63146972656250
586,768387966,127.08185577392578,65.38967895507812,9.17387390136719,12.57891368865967,-3.87103080749512,-36.92176818847656,725.38592529296875,-168.65086364746094,-22.00914192199707
587,768396299,131.67353820800781,66.14079284667969,6.93202638626099,13.53614425659180,-7.24565362930298,-38.57358169555664,795.87677001953125,-142.38987731933594,-0.23619686067104
588,768404632,136.84098815917969,66.82208251953125,4.79786777496338,11.94540309906006,-0.24827456474304,-35.83207702636719,853.89953613281250,-130.67268371582031,13.48040294647217
589,768412965,141.86642456054688,67.50729370117188,2.49545884132385,11.60189723968506,2.66712665557861,-35.71990966796875,857.24926757812500,-132.08833312988281,27.18607330322266
590,768421298,146.91102600097656,68.12653350830078,-0.06916646659374,11.66715431213379,6.32548809051514,-41.59415435791016,889.25244140625000,-128.59881591796875,52.10371398925781
591,768429631,151.42823791503906,68.66840362548828,-3.48512315750122,11.23298358917236,13.12992191314697,-43.61852264404297,922.74456787109375,-133.03034973144531,95.70549774169922
592,768437964,155.24983215332031,69.13210296630859,-7.88588190078735,8.71293067932129,15.92153930664062,-41.96362686157227,950.14422607421875,-135.68989562988281,146.00448608398438
593,768446297,157.97644042968750,69.60012817382812,-13.50038719177246,6.02571201324463,12.22723674774170,-39.53315734863281,957.26470947265625,-145.60357666015625,195.10729980468750
594,768454630,159.67503356933594,70.17996978759766,-20.35905838012695,4.50647544860840,5.83891677856445,-38.85742187500000,975.55474853515625,-167.75679016113281,239.94227600097656
595,768462963,160.12281799316406,70.95468139648438,-28.60308074951172,6.09715509414673,1.15622234344482,-41.64285659790039,986.24023437500000,-200.07720947265625,276.59304809570312
596,768471296,159.50338745117188,71.81760406494141,-38.07037353515625,11.02871894836426,-0.36299037933350,-47.81707763671875,1001.20751953125000,-222.74230957031250,306.03530883789062
597,768479629,158.13526916503906,72.63822937011719,-48.49132156372070,16.05796813964844,-1.51047730445862,-51.43414688110352,1026.30505371093750,-229.19396972656250,319.70913696289062
598,768487962,156.65361022949219,73.33827972412109,-59.15592193603516,20.16381454467773,-2.48521733283997,-52.99183273315430,1044.85717773437500,-221.89257812500000,315.10125732421875
599,768496295,155.18505859375000,73.93018341064453,-69.83515167236328,23.84091377258301,1.99702596664429,-52.68199157714844,1052.98791503906250,-211.70637512207031,300.03784179687500
600,768504628,153.89991760253906,74.46926116943359,-80.35544586181641,23.95063018798828,6.28449916839600,-52.22274398803711,1059.34777832031250,-206.69378662109375,284.68139648437500
601,768512961,152.26473999023438,74.99675750732422,-91.32489013671875,20.58738517761230,8.24488258361816,-56.07468414306641,1073.29895019531250,-212.88166809082031,279.76272583007812
602,768521294,150.54342651367188,75.38903045654297,-102.64428710937500,18.44603347778320,6.90306758880615,-60.50030517578125,1105.48095703125000,-208.01211547851562,284.60409545898438
603,768529627,148.72151184082031,75.51869964599609,-114.40859222412109,18.06372642517090,5.46437025070190,-67.83205413818359,1147.48181152343750,-192.31588745117188,297.31939697265625
604,768537960,147.42388916015625,75.41889953613281,-126.03253936767578,19.07495880126953,4.81069993972778,-70.35758972167969,1193.29187011718750,-175.65390014648438,305.95474243164062
605,768546293,146.77371215820312,75.23703765869141,-137.44818115234375,19.90037155151367,11.26162338256836,-71.50860595703125,1246.80749511718750,-169.96206665039062,302.46447753906250
606,768554626,147.27995300292969,74.88533782958984,-147.97219848632812,21.33090782165527,16.22075271606445,-70.97282409667969,1279.56726074218750,-142.61543273925781,299.09048461914062
607,768562959,148.39305114746094,74.43949127197266,-157.90269470214844,21.31819915771484,20.22984504699707,-67.93656158447266,1282.36560058593750,-122.43187713623047,294.70315551757812
608,768571292,149.65789794921875,74.02993011474609,-167.47077941894531,19.94745826721191,22.51926994323730,-64.00874328613281,1255.29089355468750,-119.15371704101562,295.93597412109375
609,768579625,150.80473327636719,73.68293762207031,-177.03416442871094,17.97460746765137,22.67683219909668,-61.37081146240234,1239.54663085937500,-122.18095397949219,297.07077026367188
610,768587958,151.99578857421875,73.42813110351562,173.44544982910156,17.46258354187012,21.06226730346680,-60.17341232299805,1238.21081542968750,-127.84849548339844,298.02105712890625
611,768596291,153.24336242675781,73.25204467773438,163.98980712890625,18.81945800781250,19.82365798950195,-59.79240036010742,1235.30480957031250,-130.65573120117188,301.80783081054688
612,768604624,154.35830688476562,73.11323547363281,154.43569946289062,20.80066490173340,18.45544624328613,-60.83141326904297,1229.72802734375000,-131.87007141113281,308.06210327148438
613,768612957,155.22837829589844,72.92945098876953,144.68370056152344,23.10769081115723,16.82709312438965,-61.96517181396484,1223.21313476562500,-125.44715118408203,318.00497436523438
614,768621290,156.06924438476562,72.59296417236328,134.92929077148438,25.53228569030762,16.16141700744629,-62.26555633544922,1218.42333984375000,-106.14264678955078,332.08810424804688
615,768629623,157.30073547363281,72.07836914062500,125.64952850341797,27.39009094238281,16.88187599182129,-61.51079177856445,1207.36120605468750,-76.78474426269531,337.79034423828125
616,768637956,158.83976745605469,71.40100860595703,116.75612640380859,27.27041244506836,16.70264244079590,-62.08448028564453,1196.54833984375000,-50.05453491210938,343.51181030273438
617,768646289,160.39392089843750,70.58775329589844,107.89207458496094,26.23075675964355,15.45843505859375,-63.92420196533203,1191.75756835937500,-29.14445495605469,358.14669799804688
618,768654622,161.90933227539062,69.69807434082031,98.84818267822266,24.49847984313965,14.72661399841309,-66.88629913330078,1202.14489746093750,-18.05768585205078,382.81259155273438
619,768662955,163.27842712402344,68.84197235107422,89.44126892089844,24.24505996704102,15.27707386016846,-68.45738983154297,1218.26220703125000,-21.62378311157227,415.03256225585938
620,768671288,164.42715454101562,68.05944061279297,79.57001495361328,24.83572959899902,15.44693279266357,-69.48789215087891,1237.66821289062500,-31.89962387084961,447.10034179687500
621,768679621,165.20919799804688,67.46417236328125,69.08824920654297,24.49623489379883,15.15545749664307,-71.23616790771484,1257.66137695312500,-55.70982360839844,477.55209350585938
622,768687954,165.62774658203125,67.10787963867188,58.06642532348633,24.13171958923340,14.27528953552246,-73.32273864746094,1269.84350585937500,-87.11737060546875,504.42864990234375
623,768696287,165.90417480468750,66.99870300292969,46.80938720703125,26.00507164001465,13.64634323120117,-74.68483734130859,1275.00622558593750,-117.09220123291016,517.16864013671875
624,768704620,166.05133056640625,67.13220977783203,35.40243911743164,28.56771850585938,13.25476837158203,-76.61328125000000,1275.97338867187500,-146.04774475097656,517.29052734375000
625,768712953,166.07244873046875,67.44527435302734,23.82703590393066,31.10369682312012,12.92959022521973,-80.26462554931641,1283.47546386718750,-165.29843139648438,510.87707519531250
626,768721286,166.28834533691406,67.76511383056641,12.39023113250732,34.04784393310547,14.01566314697266,-84.20589447021484,1294.40393066406250,-161.84144592285156,498.01400756835938
627,768729619,166.69862365722656,68.07782745361328,1.17350602149963,34.90423965454102,17.48777008056641,-85.60966491699219,1294.04272460937500,-154.98495483398438,487.67889404296875
628,768737952,166.99702453613281,68.44342803955078,-10.13788318634033,35.34508514404297,22.78185272216797,-83.59052276611328,1294.00183105468750,-158.77644348144531,484.39166259765625
629,768746285,166.90728759765625,68.80960845947266,-21.87928009033203,34.60992050170898,28.04726028442383,-79.72117614746094,1300.89978027343750,-158.37118530273438,489.72396850585938
630,768754618,166.24453735351562,69.27576446533203,-34.16994857788086,32.11337661743164,30.16709709167480,-76.03459167480469,1297.42138671875000,-176.42489624023438,499.46682739257812
631,768762951,164.94346618652344,69.86319732666016,-46.84772491455078,31.30179595947266,30.00188446044922,-70.78901672363281,1266.97143554687500,-200.64060974121094,502.18218994140625
632,768771284,162.93417358398438,70.47386932373047,-59.89641571044922,30.45700454711914,29.10276985168457,-65.14801788330078,1229.35656738281250,-218.71987915039062,495.37036132812500
633,768779617,160.02780151367188,71.03891754150391,-73.45896911621094,29.20415687561035,28.49806976318359,-59.45606994628906,1187.58447265625000,-233.95878601074219,486.17132568359375
634,768787950,156.15614318847656,71.48580932617188,-87.57570648193359,27.56105804443359,29.15038299560547,-52.83687973022461,1139.46240234375000,-252.05091857910156,483.80838012695312
635,768796283,151.19804382324219,71.80636596679688,-102.31813049316406,25.30990028381348,29.73536682128906,-46.15071487426758,1082.14111328125000,-281.22418212890625,487.32705688476562
636,768804616,145.14248657226562,71.84558868408203,-117.61535644531250,24.16214561462402,28.44458961486816,-40.25637054443359,1015.61065673828125,-306.47872924804688,488.36209106445312
637,768812949,138.30158996582031,71.43729400634766,-133.00553894042969,23.22437858581543,26.21515083312988,-37.38331985473633,932.00000000000000,-321.27365112304688,485.23620605468750
638,768821282,132.48593139648438,70.28470611572266,-146.51760864257812,24.10259056091309,25.83692169189453,-39.02455139160156,833.91632080078125,-274.69708251953125,473.85406494140625
639,768829615,126.90859222412109,68.49891662597656,-159.35656738281250,8.11181354522705,32.57934188842773,-29.54722976684570,771.47235107421875,-280.57589721679688,514.86987304687500
640,768837948,121.16078186035156,66.41400146484375,-171.62232971191406,-0.52075427770615,35.23862457275391,-23.89997100830078,668.41113281250000,-328.38134765625000,525.95312500000000
641,768846281,116.08603668212891,64.00479125976562,177.75459289550781,-14.65651321411133,35.34920501708984,-21.32185173034668,548.37646484375000,-330.61627197265625,508.04571533203125
642,768854614,111.82624816894531,61.27672958374023,168.99472045898438,-22.59895515441895,44.86017608642578,-17.02014160156250,422.38232421875000,-308.45608520507812,493.83935546875000
643,768862947,105.96080017089844,58.25163269042969,159.31240844726562,-50.24687576293945,56.06191635131836,-6.78021764755249,299.23187255859375,-436.10037231445312,535.22387695312500
644,768871280,99.75537109375000,55.58633804321289,149.33618164062500,-31.09484100341797,28.71849632263184,-10.24962329864502,258.13442993164062,-565.77453613281250,458.75546264648438
645,768879613,94.78799438476562,52.69271087646484,141.08364868164062,-26.84735679626465,18.58525848388672,-5.50600671768188,206.61970520019531,-531.17205810546875,416.44540405273438
646,768887946,90.23026275634766,49.54304885864258,133.12837219238281,-24.14417076110840,12.91163444519043,-2.36046862602234,196.32562255859375,-581.76300048828125,402.42749023437500
647,768896279,86.64508056640625,46.25944519042969,126.36889648437500,-15.65707015991211,14.81846809387207,0.72876220941544,171.62100219726562,-554.13769531250000,381.15084838867188
648,768904612,83.85824584960938,42.80310058593750,120.70263671875000,-19.05851364135742,19.49251556396484,1.28853654861450,142.52392578125000,-517.15649414062500,375.55371093750000
649,768912945,81.58325958251953,39.31719970703125,115.92844390869141,-19.39221572875977,16.51113700866699,-5.91394138336182,103.08980560302734,-481.27807617187500,359.29342651367188
650,768921278,79.86344146728516,36.20454025268555,112.10433197021484,-10.82921504974365,9.40660953521729,-13.02820396423340,74.31600952148438,-418.04824829101562,309.36517333984375
651,768929611,78.62033843994141,33.51783370971680,108.94635772705078,-3.53523802757263,5.43156909942627,-7.80797672271729,67.84059143066406,-365.55004882812500,261.32791137695312
652,768937944,77.75607299804688,31.11356544494629,106.27871704101562,-4.12781429290771,4.15830326080322,-3.55626130104065,67.57060241699219,-324.00946044921875,229.74519348144531
653,768946277,77.16439819335938,28.76692962646484,103.84494018554688,-8.18069648742676,7.02879953384399,0.85693764686584,74.33873748779297,-307.97640991210938,219.25666809082031
654,768954610,76.83006286621094,26.49284744262695,101.60960388183594,-11.24678421020508,5.40660619735718,5.95494365692139,83.84462738037109,-292.75216674804688,211.75784301757812
655,768962943,76.86215209960938,24.53638648986816,99.72491455078125,-11.31973361968994,-0.21477341651917,0.95491135120392,101.70293426513672,-252.33169555664062,184.95202636718750
656,768971276,77.27566528320312,22.85671806335449,98.09757232666016,-11.37742900848389,-0.07545571029186,-1.21323204040527,128.76654052734375,-219.53483581542969,159.56999206542969
657,768979609,78.00372314453125,21.38951683044434,96.71894836425781,-10.62591743469238,3.85857582092285,-0.90617018938065,149.21278381347656,-187.18443298339844,138.54309082031250
658,768987942,78.93252563476562,20.03315353393555,95.50022125244141,-12.00212860107422,9.75014686584473,1.24427521228790,162.72148132324219,-166.36466979980469,131.49841308593750
659,768996275,79.75061798095703,18.70324325561523,94.21729278564453,-17.32347488403320,14.71206188201904,1.42526626586914,150.14271545410156,-172.33299255371094,133.45236206054688
660,769004608,80.38861846923828,17.53150367736816,92.93374633789062,-14.03893661499023,13.71325874328613,-2.73887085914612,125.43218994140625,-168.53596496582031,117.14923095703125
661,769012941,80.98692321777344,16.63178825378418,91.80101776123047,-6.82350540161133,11.84085941314697,-3.94895434379578,111.26921844482422,-145.47805786132812,84.88449859619141
662,769021274,81.62646484375000,16.06231689453125,90.83917999267578,-4.40145015716553,12.44522380828857,-4.76815462112427,110.16264343261719,-119.89711761474609,54.94508743286133
663,769029607,82.32967376708984,15.61748695373535,89.94523620605469,-4.23595666885376,13.95138263702393,-3.48953509330750,113.21154785156250,-109.42409515380859,37.82236480712891
664,769037940,82.87773132324219,15.34909343719482,89.10680389404297,-2.58560466766357,15.39460563659668,-3.04684948921204,93.43150329589844,-100.33856201171875,23.58844947814941
665,769046273,83.30063629150391,15.16754722595215,88.40528106689453,-1.03934836387634,16.42701530456543,-5.01672458648682,72.44979858398438,-83.03288269042969,11.22163867950439
666,769054606,83.65696716308594,15.11040687561035,87.81549072265625,0.18606168031693,16.86500549316406,-5.20045423507690,61.87472534179688,-68.65723419189453,3.04573464393616
