sep=,
DeviceTag:,Xsens DOT
FirmwareVersion:,2.1.0
AppVersion:,2022.0.0
StartTime: ,2022-08-15_19:21:33_000 EDT
© Xsens Technologies B. V. 2005-2022

PacketCounter,SampleTimeFine,Euler_X,Euler_Y,Euler_Z,Acc_X,Acc_Y,Acc_Z,Gyr_X,Gyr_Y,Gyr_Z
0,808842795,142.97587585449219,-24.88182830810547,58.45237731933594,0.00000000000000,0.00000000000000,0.00000000000000,0.00000000000000,0.00000000000000,0.00000000000000
1,808851128,152.32609558105469,-27.09476470947266,53.75826263427734,3.12186050415039,-1.25667285919189,-1.45040655136108,282.43502807617188,-129.74658203125000,75.47483825683594
2,808859461,155.40184020996094,-26.46257019042969,52.39484786987305,0.83458626270294,-0.36337995529175,-1.37818813323975,294.77838134765625,-131.79470825195312,95.84045410156250
3,808867794,162.18994140625000,-27.62418556213379,48.88070678710938,-2.38729691505432,1.30078339576721,-1.43842959403992,311.69537353515625,-143.89254760742188,122.14943695068359
4,808876127,165.68975830078125,-26.71545410156250,47.17055511474609,-4.80680370330811,3.44887995719910,-1.19033694267273,325.73669433593750,-154.67362976074219,143.42607116699219
5,808884460,169.15686035156250,-25.80612564086914,45.42773056030273,-6.34918594360352,5.48570585250854,-0.84540879726410,323.12738037109375,-146.71516418457031,157.51673889160156
6,808892793,172.81430053710938,-23.61352539062500,43.17723083496094,-9.54461956024170,9.21725940704346,-0.95878297090530,292.77868652343750,-136.91152954101562,166.08734130859375
7,808901126,175.49951171875000,-22.48559951782227,41.52696990966797,-12.04990291595459,10.95717239379883,-1.62329185009003,244.25543212890625,-152.56655883789062,165.68568420410156
8,808909459,175.04454040527344,-17.96751976013184,40.88538742065430,-11.33193683624268,9.55511569976807,-2.18719959259033,205.90478515625000,-169.38960266113281,152.73431396484375
9,808917792,172.92201232910156,-12.05027294158936,40.55908966064453,-10.53604602813721,5.64452743530273,-3.03645110130310,196.79829406738281,-154.55445861816406,135.01129150390625
10,808926125,174.78015136718750,-11.06719207763672,39.43850326538086,-10.73746109008789,4.00698995590210,-3.31926321983337,195.64405822753906,-130.58724975585938,116.63106536865234
11,808934458,176.51339721679688,-10.15738105773926,38.47192764282227,-10.32384967803955,3.31298351287842,-3.64652967453003,186.20115661621094,-116.83324432373047,103.58203887939453
12,808942791,174.85258483886719,-4.30995273590088,37.57684707641602,-9.15377712249756,2.77494502067566,-3.67694401741028,178.98637390136719,-116.04024505615234,96.41373443603516
13,808951124,173.94012451171875,1.20171999931335,36.12955093383789,-8.06443881988525,2.37156796455383,-3.14536523818970,178.57510375976562,-117.10997772216797,96.60008239746094
14,808959457,175.42227172851562,2.09243154525757,35.20697021484375,-7.68076801300049,1.97502017021179,-2.59072399139404,180.55412292480469,-115.71004486083984,98.54755401611328
15,808967790,176.89556884765625,2.96322822570801,34.29521179199219,-7.83612442016602,1.95220601558685,-2.25384950637817,181.20056152343750,-110.79758453369141,100.29769134521484
16,808976123,176.31190490722656,7.71405315399170,32.53270339965820,-8.57720184326172,2.10933184623718,-1.58059704303741,181.71011352539062,-111.70134735107422,105.09362792968750
17,808984456,176.01377868652344,11.96983528137207,30.62672233581543,-8.76694679260254,2.08928656578064,-1.38804876804352,183.09870910644531,-112.91106414794922,107.17573547363281
18,808992789,177.34393310546875,12.85176563262939,29.63644790649414,-8.78089141845703,2.14516258239746,-1.14731538295746,184.61692810058594,-111.30475616455078,107.98619842529297
19,809001122,178.64743041992188,13.72108364105225,28.67406272888184,-8.58974170684814,2.44279909133911,-1.25240337848663,182.49308776855469,-107.27855682373047,106.93132781982422
20,809009455,178.33206176757812,17.60231018066406,26.64538192749023,-8.92033672332764,2.11535453796387,-0.79086792469025,178.90144348144531,-111.56489562988281,106.31936645507812
21,809017788,179.18733215332031,19.12160682678223,25.47204780578613,-8.17990589141846,1.93665242195129,-1.71314668655396,175.11856079101562,-107.74179840087891,100.67745971679688
22,809026121,-179.64210510253906,20.02137565612793,24.59337615966797,-8.44721412658691,2.23688054084778,-0.94419890642166,175.25514221191406,-107.31207275390625,97.16903686523438
23,809034454,-178.50219726562500,20.96543693542480,23.76055908203125,-8.94086170196533,1.94456970691681,-0.84320485591888,171.26071166992188,-110.74125671386719,93.68511962890625
24,809042787,-177.40238952636719,21.89395523071289,22.99827575683594,-8.50465774536133,1.72806966304779,-1.97604894638062,166.83494567871094,-99.28873443603516,83.60482788085938
25,809051120,-176.31437683105469,22.71106910705566,22.31618499755859,-8.80962181091309,2.71765208244324,-2.33281588554382,161.31243896484375,-89.75996398925781,77.74371337890625
26,809059453,-175.25155639648438,23.58844566345215,21.69094657897949,-9.71791076660156,2.02171897888184,-1.63271605968475,156.51501464843750,-98.89553833007812,74.78955841064453
27,809067786,-174.15614318847656,24.41525840759277,21.16946792602539,-8.81232261657715,0.61197680234909,-3.53834319114685,156.38267517089844,-92.48809814453125,64.32800292968750
28,809076119,-173.02046203613281,25.13697052001953,20.70281600952148,-8.49295806884766,1.77966701984406,-4.41674137115479,159.35179138183594,-77.12451934814453,57.08187866210938
29,809084452,-171.86100769042969,25.89368247985840,20.28563690185547,-9.07561588287354,1.43389415740967,-3.65330719947815,160.15185546875000,-81.23273468017578,53.82239151000977
30,809092785,-170.65869140625000,26.66316413879395,19.92399787902832,-8.95041465759277,1.00834953784943,-3.77228522300720,162.96627807617188,-84.32022857666016,50.73547744750977
31,809101118,-169.37811279296875,27.36770248413086,19.63233566284180,-8.00031852722168,0.35504645109177,-4.37736415863037,169.04782104492188,-76.82824707031250,43.60889053344727
32,809109451,-168.04968261718750,28.02427864074707,19.35149002075195,-7.69290781021118,1.01483798027039,-4.61276483535767,174.47982788085938,-68.67308044433594,41.65393829345703
33,809117784,-166.66192626953125,28.67832565307617,19.09922599792480,-7.24449777603149,0.77255797386169,-4.87098264694214,180.33773803710938,-68.30307769775391,40.31777191162109
34,809126117,-165.16175842285156,29.34442329406738,18.85844993591309,-6.93609237670898,0.48813942074776,-5.59165239334106,193.51295471191406,-70.34431457519531,42.20856857299805
35,809134450,-163.52839660644531,29.99809646606445,18.64557075500488,-6.17563629150391,0.38738837838173,-5.59925317764282,208.12980651855469,-68.50898742675781,40.78419876098633
36,809142783,-161.80790710449219,30.64782142639160,18.42414665222168,-5.67825365066528,0.44358351826668,-5.39107131958008,219.43501281738281,-65.51505279541016,42.34880065917969
37,809151116,-159.99327087402344,31.29543495178223,18.19680976867676,-5.47943115234375,0.55780893564224,-5.41000270843506,231.50279235839844,-64.03353881835938,44.96172714233398
38,809159449,-158.08934020996094,31.99073410034180,17.92488479614258,-5.93899583816528,1.92681193351746,-5.35160970687866,245.07186889648438,-66.94621276855469,54.03252792358398
39,809167782,-156.12017822265625,32.86121368408203,17.57472610473633,-7.37381267547607,4.12263536453247,-4.13724136352539,258.31011962890625,-81.39978027343750,71.56169128417969
40,809176115,-154.12188720703125,33.90232086181641,17.23704910278320,-8.18549633026123,5.24681854248047,-3.58185958862305,262.03692626953125,-97.58402252197266,80.65901184082031
41,809184448,-152.11663818359375,35.02400970458984,16.96823883056641,-7.55314731597900,4.93637704849243,-4.40283632278442,259.19445800781250,-106.23059844970703,81.28453826904297
42,809192781,-150.08163452148438,36.15064239501953,16.70652770996094,-7.24361133575439,5.33246898651123,-4.65418624877930,261.95257568359375,-104.98503875732422,85.94860839843750
43,809201114,-148.05729675292969,37.33415222167969,16.42390441894531,-8.20439434051514,5.60531663894653,-4.33854818344116,262.68542480468750,-106.82666778564453,94.56177520751953
44,809209447,-146.04435729980469,38.54081344604492,16.17956352233887,-8.46422290802002,4.63370466232300,-5.40240669250488,260.14413452148438,-107.35073852539062,94.50698089599609
45,809217780,-144.04304504394531,39.70125198364258,15.93236255645752,-8.00151538848877,5.14228010177612,-6.20495080947876,259.53240966796875,-99.38896942138672,94.70073699951172
46,809226113,-142.09359741210938,40.86682128906250,15.65938854217529,-9.06916999816895,7.07759618759155,-5.23982763290405,254.59013366699219,-95.75699615478516,102.26734924316406
47,809234446,-140.18423461914062,42.06726837158203,15.49541282653809,-9.70752143859863,6.70873880386353,-5.48820734024048,241.62998962402344,-101.88768768310547,100.11678314208984
48,809242779,-138.22691345214844,43.39742660522461,15.40572261810303,-9.93327426910400,6.97136306762695,-5.15617036819458,243.00947570800781,-114.46006011962891,105.98395538330078
49,809251112,-136.22853088378906,44.71472549438477,15.40474224090576,-10.22903919219971,7.17456150054932,-4.32147598266602,240.70256042480469,-114.75225830078125,102.62837219238281
50,809259445,-134.17829895019531,45.94427871704102,15.52323913574219,-10.30525779724121,6.74986505508423,-5.06708383560181,235.39021301269531,-110.71259307861328,95.11465454101562
51,809267778,-132.13005065917969,47.16351699829102,15.68205642700195,-10.71622848510742,7.21441268920898,-5.58329057693481,231.42880249023438,-108.59848785400391,96.01920318603516
52,809276111,-130.07057189941406,48.41347503662109,15.89965248107910,-11.18069362640381,6.77806520462036,-5.87451505661011,228.34756469726562,-110.82723236083984,96.26919555664062
53,809284444,-127.98632812500000,49.59861373901367,16.17941093444824,-11.34710979461670,5.27714395523071,-7.08913087844849,225.33177185058594,-105.79010772705078,91.10624694824219
54,809292777,-125.76935577392578,50.73355865478516,16.54506492614746,-12.25328445434570,5.30274486541748,-7.42660856246948,231.81840515136719,-103.17590332031250,90.32094573974609
55,809301110,-123.45845794677734,51.86861801147461,16.99506759643555,-13.91071224212646,5.30174684524536,-7.77021837234497,235.74313354492188,-104.67572021484375,87.43466186523438
56,809309443,-120.92430877685547,52.98499679565430,17.65654182434082,-14.34621429443359,4.27608203887939,-8.66393661499023,240.66049194335938,-111.29270935058594,85.82774353027344
57,809317776,-118.18277740478516,54.11302947998047,18.41595268249512,-13.24263000488281,3.11727738380432,-10.04762458801270,256.21514892578125,-113.75643920898438,85.37622070312500
58,809326109,-115.21603393554688,55.31937789916992,19.27975273132324,-14.52917289733887,6.81354570388794,-7.66705942153931,270.86642456054688,-117.49588012695312,100.66841125488281
59,809334442,-112.19116210937500,56.54394531250000,20.28948020935059,-15.47876739501953,6.93995237350464,-8.49170398712158,263.17379760742188,-121.59835052490234,101.51762390136719
60,809342775,-108.97302246093750,57.73981094360352,21.47939491271973,-14.36403274536133,6.34724664688110,-9.83676528930664,265.69729614257812,-121.93615722656250,105.34979248046875
61,809351108,-105.64143371582031,58.98524093627930,22.72365760803223,-14.18806171417236,7.50666141510010,-8.70597362518311,273.09051513671875,-120.16842651367188,113.22271728515625
62,809359441,-102.07411956787109,60.14924240112305,24.24934196472168,-15.75777912139893,9.04033374786377,-7.82384347915649,269.68884277343750,-122.44877624511719,111.64073944091797
63,809367774,-98.16636657714844,61.25936126708984,26.12190246582031,-15.50540542602539,7.88781881332397,-8.58162784576416,272.99905395507812,-133.02764892578125,105.16728210449219
64,809376107,-93.72126007080078,62.26293182373047,28.43651580810547,-15.22834968566895,6.13807582855225,-9.13906478881836,288.17489624023438,-142.13711547851562,104.39735412597656
65,809384440,-88.92094421386719,63.16390991210938,30.97437858581543,-14.76014900207520,5.82768058776855,-9.66333198547363,305.15924072265625,-144.01325988769531,98.20404052734375
66,809392773,-83.77396392822266,63.88296508789062,33.79484176635742,-15.47298145294189,6.51462602615356,-9.74346065521240,314.13684082031250,-144.04301452636719,93.94268798828125
67,809401106,-78.31456756591797,64.47549438476562,36.83661651611328,-14.85721015930176,5.29804658889771,-10.13465404510498,326.23886108398438,-148.56547546386719,88.58317565917969
68,809409439,-72.61528778076172,64.82353973388672,40.00726699829102,-12.45009994506836,2.74083018302917,-11.40536785125732,339.53710937500000,-146.15722656250000,79.53717803955078
69,809417772,-66.93015289306641,65.06509399414062,43.06668090820312,-11.36464691162109,2.68912196159363,-11.40648174285889,349.55285644531250,-139.10679626464844,75.29780578613281
70,809426105,-61.23621749877930,65.10082244873047,46.10884475708008,-10.36363601684570,1.83378148078918,-12.12855148315430,351.65872192382812,-135.41120910644531,69.30615234375000
71,809434438,-55.71855926513672,65.05627441406250,48.99668884277344,-8.93710803985596,1.43557214736938,-12.73220443725586,348.14483642578125,-131.06863403320312,67.13997650146484
72,809442771,-50.28064727783203,64.88880920410156,51.79538345336914,-7.05695438385010,0.56216841936111,-13.90561962127686,347.70980834960938,-124.51058197021484,67.69416809082031
73,809451104,-44.90343856811523,64.70292663574219,54.50587463378906,-5.12167787551880,1.15172791481018,-13.24174499511719,351.79660034179688,-121.59854125976562,73.29605865478516
74,809459437,-39.50006866455078,64.37200164794922,57.26065063476562,-3.14883351325989,1.52039122581482,-12.56769561767578,349.41790771484375,-123.82820129394531,76.84245300292969
75,809467770,-34.24053573608398,63.97033691406250,59.87896347045898,-0.55496329069138,1.52428174018860,-12.12243366241455,349.28997802734375,-125.09170532226562,77.74178314208984
76,809476103,-29.03565025329590,63.43571090698242,62.41061019897461,1.72598791122437,2.16211295127869,-11.23143100738525,351.70712280273438,-124.16493225097656,79.17435455322266
77,809484436,-23.94108772277832,62.87476730346680,64.79886627197266,3.44755887985229,3.01984047889709,-9.98809814453125,356.40899658203125,-122.03410339355469,83.55451965332031
78,809492769,-18.89457511901855,62.21743011474609,67.11659240722656,4.30971908569336,4.19016790390015,-8.52191734313965,358.25622558593750,-119.20149993896484,88.80798339843750
79,809501102,-14.03665447235107,61.54915237426758,69.30835723876953,4.68582487106323,5.22580051422119,-7.28246784210205,350.98379516601562,-115.37006378173828,94.10111999511719
80,809509435,-9.29386806488037,60.78729248046875,71.47817993164062,4.65845346450806,6.24152326583862,-6.84962654113770,340.51162719726562,-113.86518096923828,102.72603607177734
81,809517768,-4.59605312347412,59.96926498413086,73.66317749023438,4.63193750381470,6.93326520919800,-7.13254451751709,334.67840576171875,-115.61772918701172,114.54705047607422
82,809526101,-0.01280103716999,59.04556655883789,75.82555389404297,5.01602458953857,7.00545835494995,-6.58446073532104,325.86959838867188,-114.98435211181641,125.34506225585938
83,809534434,4.40085554122925,58.08819961547852,77.92842102050781,5.19112730026245,6.90507745742798,-5.70862245559692,312.16284179687500,-111.38719940185547,133.42654418945312
84,809542767,8.56935405731201,57.02036666870117,79.91139984130859,4.94139337539673,6.60053730010986,-5.00293397903442,298.87982177734375,-111.83789062500000,139.55699157714844
85,809551100,12.55387115478516,55.86365509033203,81.77775573730469,4.85326814651489,6.19132614135742,-4.84935235977173,288.82009887695312,-114.41991424560547,144.55233764648438
86,809559433,16.26470947265625,54.57561111450195,83.45133209228516,4.13161277770996,5.52464866638184,-4.10642051696777,279.81961059570312,-120.13077545166016,147.65589904785156
87,809567766,19.79429244995117,53.16016387939453,84.92456054687500,3.46818709373474,4.85135602951050,-3.32909107208252,277.91748046875000,-129.24470520019531,149.10104370117188
88,809576099,23.07892990112305,51.59085464477539,86.13088226318359,2.79282450675964,3.87376427650452,-2.60791802406311,278.97094726562500,-141.93423461914062,149.32179260253906
89,809584432,26.24871444702148,49.90649032592773,87.12339782714844,2.09985780715942,2.46799850463867,-2.36042094230652,285.46081542968750,-151.77757263183594,150.33660888671875
90,809592765,29.26261329650879,48.19071960449219,87.90847778320312,1.86563694477081,2.27591180801392,-2.53127455711365,289.98233032226562,-152.39646911621094,148.76870727539062
91,809601098,32.17384338378906,46.47406768798828,88.52544403076172,1.87474799156189,1.63432180881500,-3.12887263298035,292.57077026367188,-150.76019287109375,146.08702087402344
92,809609431,35.06965637207031,44.78960800170898,89.06678009033203,2.02203106880188,1.21460211277008,-4.91095113754272,300.53308105468750,-142.11959838867188,147.98997497558594
93,809617764,37.98797607421875,43.12647247314453,89.58264923095703,1.32131433486938,2.26398205757141,-6.33958292007446,305.07733154296875,-133.10617065429688,152.49952697753906
94,809626097,40.84421539306641,41.43954467773438,90.04486846923828,0.74981009960175,4.24605655670166,-7.36504793167114,304.90496826171875,-129.28224182128906,158.47665405273438
95,809634430,43.69076156616211,39.75403213500977,90.48510742187500,0.50728559494019,6.95941972732544,-8.11698150634766,304.63888549804688,-122.07025146484375,163.71293640136719
96,809642763,46.55187225341797,38.08612442016602,90.93501281738281,-1.14231932163239,9.03525066375732,-8.50286006927490,308.88793945312500,-110.40805816650391,169.70747375488281
97,809651096,49.38956832885742,36.44527435302734,91.35369110107422,-3.39822411537170,11.86996078491211,-8.54985809326172,306.51510620117188,-101.50700378417969,170.95640563964844
98,809659429,52.07270431518555,34.80502319335938,91.73925018310547,-6.04426431655884,13.35395050048828,-8.03312683105469,294.49932861328125,-94.41229248046875,174.42626953125000
99,809667762,54.52982330322266,33.09401702880859,92.02296447753906,-8.86067962646484,14.34109592437744,-6.92762184143066,271.11965942382812,-99.43110656738281,179.49664306640625
100,809676095,56.72207641601562,31.25907516479492,92.10409545898438,-10.20361423492432,13.76627349853516,-6.56687784194946,257.35946655273438,-116.45609283447266,184.62921142578125
101,809684428,58.65213775634766,29.35787200927734,91.92528533935547,-10.77794170379639,14.00712299346924,-4.78418636322021,241.91387939453125,-136.55755615234375,181.14976501464844
102,809692761,60.36882019042969,27.50450134277344,91.59013366699219,-10.46298217773438,12.50564956665039,-4.92088317871094,219.82020568847656,-142.57983398437500,172.22187805175781
103,809701094,61.85409164428711,25.75242805480957,91.12434387207031,-10.32190799713135,11.49925613403320,-4.48590135574341,197.97923278808594,-144.67716979980469,158.85717773437500
104,809709427,63.16442108154297,24.13133430480957,90.57309722900391,-9.90263366699219,9.98636436462402,-5.09248685836792,184.61665344238281,-141.94219970703125,143.10021972656250
105,809717760,64.35981750488281,22.65367889404297,89.98691558837891,-9.74488735198975,9.30417442321777,-5.09954547882080,170.85964965820312,-135.24061584472656,128.73171997070312
106,809726093,65.46270751953125,21.31704139709473,89.35871887207031,-9.34828376770020,8.17087364196777,-5.86560344696045,155.54911804199219,-130.49781799316406,115.12581634521484
107,809734426,66.51482391357422,20.07612228393555,88.68499755859375,-8.39836883544922,6.70865345001221,-7.50238323211670,150.04301452636719,-128.94926452636719,105.08694458007812
108,809742759,67.57665252685547,18.90611839294434,88.00907897949219,-7.79395961761475,6.33696889877319,-8.49929428100586,153.96458435058594,-124.09873199462891,97.67687225341797
109,809751092,68.68455505371094,17.83690261840820,87.38861846923828,-7.39191341400146,6.49771881103516,-9.07892513275146,155.90190124511719,-112.30187988281250,90.97285461425781
110,809759425,69.93368530273438,16.85829353332520,86.85366058349609,-6.74057674407959,6.32850742340088,-10.57022094726562,164.23913574218750,-97.85935974121094,88.43373870849609
111,809767758,71.20547485351562,15.90384674072266,86.38041687011719,-7.35259437561035,8.08843421936035,-8.50000190734863,163.48191833496094,-88.34773254394531,90.23192596435547
112,809776091,72.46502685546875,14.94046497344971,85.99014282226562,-7.20227813720703,7.68411970138550,-8.74470233917236,163.08352661132812,-77.86470031738281,93.98381042480469
113,809784424,73.68640899658203,13.99185848236084,85.61994171142578,-7.94051933288574,8.70078182220459,-6.41148614883423,157.14952087402344,-73.22082519531250,94.59828948974609
114,809792757,74.95099639892578,13.10703468322754,85.29499053955078,-7.91794252395630,9.03875064849854,-5.68966531753540,155.62890625000000,-63.66442489624023,92.45987701416016
115,809801090,76.15908050537109,12.26829814910889,85.06514739990234,-8.13052368164062,10.59067726135254,-3.72872853279114,146.01554870605469,-49.65580368041992,91.26892852783203
116,809809423,77.25353240966797,11.45467090606689,84.90243530273438,-8.29002666473389,9.80220413208008,-5.11649036407471,134.82978820800781,-39.96909332275391,88.83447265625000
117,809817756,78.28591156005859,10.63426589965820,84.64682006835938,-8.97234821319580,9.85638999938965,-6.27239322662354,129.24710083007812,-49.20405578613281,88.05061340332031
118,809826089,79.16770935058594,9.83012294769287,84.30279541015625,-9.29366111755371,9.25986099243164,-9.50774192810059,108.52280426025391,-56.95631790161133,87.29566192626953
119,809834422,79.80319976806641,9.05078411102295,83.95700836181641,-9.55206298828125,9.82468223571777,-9.24619007110596,78.23767089843750,-55.47531890869141,85.30638885498047
120,809842755,80.24719238281250,8.26906967163086,83.58145141601562,-9.03254222869873,8.83859062194824,-6.91649532318115,59.54364395141602,-59.05121231079102,82.87754821777344
121,809851088,80.78238677978516,7.51350593566895,83.14049530029297,-8.15693378448486,7.93267345428467,-3.30790448188782,70.97016143798828,-65.56229400634766,78.99974822998047
122,809859421,81.36639404296875,6.80307006835938,82.57946777343750,-7.78678417205811,8.27351760864258,-2.87609529495239,73.54323577880859,-77.11972045898438,74.97135925292969
123,809867754,81.87372589111328,6.10671663284302,81.95268249511719,-6.74233436584473,8.29166698455811,-4.16234827041626,65.05504608154297,-84.17800140380859,72.93820190429688
124,809876087,82.25138854980469,5.42822885513306,81.35953521728516,-6.34271192550659,7.66304445266724,-4.50474262237549,51.95079803466797,-80.30237579345703,69.06124114990234
125,809884420,82.61548614501953,4.76148271560669,80.86923980712891,-5.88995361328125,8.27792739868164,-4.51899003982544,48.39569854736328,-67.55023956298828,69.80060577392578
126,809892753,82.96009826660156,4.10104560852051,80.36913299560547,-6.89949750900269,8.99192905426025,-3.86868333816528,42.05076217651367,-67.27028656005859,72.23905181884766
127,809901086,83.31838226318359,3.45469021797180,79.86686706542969,-6.06301307678223,9.72233486175537,-3.82504415512085,43.20924758911133,-66.94519042968750,70.88634490966797
128,809909419,83.62371826171875,2.79475784301758,79.40715026855469,-7.26510667800903,10.24111843109131,-3.61579442024231,39.12314605712891,-62.64951324462891,70.61493682861328
129,809917752,83.89823150634766,2.15878224372864,78.95676422119141,-7.67843484878540,9.83616352081299,-3.45026731491089,34.75487518310547,-60.89185333251953,68.20115661621094
130,809926085,84.17378234863281,1.59696996212006,78.57714080810547,-8.36364650726318,10.40169334411621,-3.77012825012207,31.03142738342285,-50.16854858398438,63.43087387084961
131,809934418,84.39467620849609,1.07637143135071,78.17932128906250,-10.01836872100830,10.35575675964355,-2.99484682083130,24.22307586669922,-51.62266921997070,58.72042846679688
132,809942751,84.55268859863281,0.62272405624390,77.81054687500000,-9.86810016632080,8.24440574645996,-3.41366672515869,19.08956718444824,-48.20338058471680,48.12060928344727
133,809951084,84.70185089111328,0.25415390729904,77.53873443603516,-9.49466037750244,7.54757833480835,-3.77311921119690,17.62503814697266,-35.53252792358398,39.18004226684570
134,809959417,84.84983825683594,-0.04007785022259,77.26931762695312,-9.86278343200684,6.78704214096069,-3.24201846122742,14.62431240081787,-33.34545135498047,33.96099853515625
135,809967750,85.00389099121094,-0.27749630808830,77.00115966796875,-9.58912944793701,5.84692907333374,-2.81222081184387,15.28515625000000,-32.55972671508789,27.58867073059082
136,809976083,85.15736389160156,-0.48875549435616,76.77359008789062,-9.40729999542236,5.85115671157837,-2.12242317199707,17.70692634582520,-28.29959106445312,21.11136817932129
137,809984416,85.30877685546875,-0.66059309244156,76.58132171630859,-9.14245700836182,6.06264591217041,-2.19857215881348,17.41087150573730,-23.62052345275879,16.83055686950684
138,809992749,85.48287200927734,-0.80415481328964,76.37613677978516,-9.40037918090820,6.99845504760742,-1.59205973148346,17.71219825744629,-23.98506736755371,17.49821662902832
139,810001082,85.66032409667969,-0.92821383476257,76.13121032714844,-9.43046569824219,6.47012233734131,-0.87261515855789,18.21426582336426,-28.62576103210449,15.05674266815186
140,810009415,85.81093597412109,-1.02244651317596,75.93318176269531,-8.70440292358398,5.94011163711548,-1.04156816005707,17.14207077026367,-23.44949340820312,7.70273160934448
141,810017748,85.88650512695312,-1.05146765708923,75.84020996093750,-8.51873874664307,6.33626222610474,-1.55369019508362,8.33957290649414,-10.29244041442871,0.86131709814072
142,810026081,85.93742370605469,-1.01796686649323,75.75897979736328,-8.76553058624268,6.55988073348999,-1.63133299350739,3.61092853546143,-7.73982810974121,-2.08394837379456
143,810034414,85.97431945800781,-0.95267599821091,75.70211029052734,-8.24193668365479,6.15818262100220,-1.64871454238892,2.10517001152039,-4.62700653076172,-5.59466123580933
144,810042747,85.97956848144531,-0.88822990655899,75.72931671142578,-8.01662254333496,6.22098255157471,-1.97231030464172,0.15618279576302,4.88359785079956,-9.29351043701172
145,810051080,85.94676971435547,-0.80502742528915,75.82571411132812,-8.22424793243408,6.49449443817139,-2.31944870948792,-4.29427814483643,13.32794666290283,-10.94937133789062
146,810059413,85.89826965332031,-0.67842262983322,75.94676208496094,-8.59134387969971,6.65408754348755,-2.13942551612854,-7.74643945693970,17.13601875305176,-11.57446289062500
147,810067746,85.82019042968750,-0.51823061704636,76.09893035888672,-8.57473468780518,6.17045116424561,-1.94206130504608,-11.21929836273193,21.12242126464844,-15.57277297973633
148,810076079,85.69335174560547,-0.33553326129913,76.30097198486328,-8.27233600616455,5.50279903411865,-2.18236851692200,-15.57024765014648,26.88538932800293,-21.87596893310547
149,810084412,85.54556274414062,-0.10813563317060,76.54219818115234,-8.06492233276367,4.93090581893921,-2.46830892562866,-18.15363502502441,32.03172302246094,-26.80375862121582
150,810092745,85.40433502197266,0.17908102273941,76.79895019531250,-7.91896963119507,4.44978046417236,-2.66439414024353,-18.93111419677734,34.87589645385742,-29.92914772033691
151,810101078,85.26641845703125,0.48503798246384,77.06903839111328,-7.62656545639038,3.98644852638245,-2.83984899520874,-18.66905784606934,36.69031524658203,-32.22918701171875
152,810109411,85.12787628173828,0.77755725383759,77.36042785644531,-7.48247957229614,3.70946359634399,-2.83178853988647,-17.53969764709473,38.86796569824219,-33.85792541503906
153,810117744,85.02436065673828,1.09521412849426,77.65142822265625,-7.68696069717407,3.60157299041748,-2.69454312324524,-14.94017982482910,39.43484115600586,-33.50270843505859
154,810126077,84.93838500976562,1.36705362796783,77.92977142333984,-7.87925815582275,3.81176877021790,-2.34689545631409,-11.56656837463379,37.20471954345703,-31.38137245178223
155,810134410,84.88590240478516,1.63874816894531,78.16405487060547,-8.05835723876953,3.69221520423889,-1.92458093166351,-8.95508480072021,32.23830032348633,-28.65346717834473
156,810142743,84.84204864501953,1.86594641208649,78.36692047119141,-7.90998172760010,3.54635620117188,-1.64832460880280,-6.53619766235352,27.76068115234375,-26.78322601318359
157,810151076,84.82069396972656,2.11106753349304,78.55519866943359,-7.80347919464111,3.54217529296875,-1.61027777194977,-5.15341043472290,26.39751052856445,-26.01428031921387
158,810159409,84.79065704345703,2.31965327262878,78.72472381591797,-7.87644052505493,3.72276473045349,-1.29716563224792,-4.92193365097046,23.59738159179688,-24.89357757568359
159,810167742,84.75997161865234,2.55156373977661,78.86458587646484,-7.91085815429688,3.38131594657898,-1.06338775157928,-6.07862234115601,20.42799758911133,-25.00053977966309
160,810176075,84.73696899414062,2.75674080848694,79.00294494628906,-7.46054077148438,3.58582496643066,-1.20947790145874,-4.05967998504639,19.85567092895508,-24.80620193481445
161,810184408,84.69532012939453,3.01788020133972,79.17070770263672,-7.46570110321045,3.53140711784363,-1.78922832012177,-7.56947708129883,24.01976394653320,-28.21321296691895
162,810192741,84.59355163574219,3.27602338790894,79.34372711181641,-7.25145006179810,3.78373265266418,-1.95747053623199,-13.88288497924805,24.61929893493652,-30.71222877502441
163,810201074,84.52262115478516,3.50765705108643,79.53083038330078,-7.26920223236084,3.73883318901062,-1.91449642181396,-11.40052509307861,26.03916740417480,-24.46144294738770
164,810209407,84.41293334960938,3.73655033111572,79.67862701416016,-7.76166629791260,3.23719549179077,-1.93834424018860,-14.81488037109375,21.34960365295410,-27.43761444091797
165,810217740,84.32280731201172,3.95736885070801,79.82154846191406,-7.44195604324341,4.25124311447144,-2.17341279983521,-13.53711318969727,20.70412445068359,-23.61847686767578
166,810226073,84.20726776123047,4.14591312408447,80.00170898437500,-7.94057369232178,4.04781150817871,-2.16295433044434,-15.92380046844482,24.80563926696777,-22.16131019592285
167,810234406,84.05900573730469,4.34925985336304,80.12822723388672,-8.07252979278564,3.94618296623230,-2.46404290199280,-20.53672027587891,18.60805702209473,-21.63916015625000
168,810242739,83.91372680664062,4.48294353485107,80.24095916748047,-7.87924242019653,3.98329043388367,-2.60275816917419,-19.00769996643066,16.17756652832031,-16.34512138366699
169,810251072,83.77603912353516,4.64173603057861,80.31246948242188,-7.80009794235229,3.58279824256897,-2.13003182411194,-18.90518760681152,11.59663486480713,-16.88737487792969
170,810259405,83.63779449462891,4.74627447128296,80.34676361083984,-7.63266229629517,3.76197028160095,-1.92669069766998,-17.45979690551758,6.53763961791992,-13.82400894165039
171,810267738,83.49514007568359,4.85867500305176,80.35306549072266,-7.67796277999878,3.71013355255127,-1.38360953330994,-18.88141441345215,3.26775050163269,-12.14860725402832
172,810276071,83.32816314697266,4.92965364456177,80.33383178710938,-7.54058170318604,3.49682259559631,-1.44920015335083,-20.37288093566895,-0.22258782386780,-10.52929973602295
173,810284404,83.17877960205078,5.01180410385132,80.29637145996094,-7.32909202575684,3.30139613151550,-1.71931254863739,-19.16278648376465,-2.32677268981934,-9.11285686492920
174,810292737,83.05285644531250,5.04727315902710,80.25772857666016,-7.29624891281128,3.19053506851196,-1.98970282077789,-15.23711776733398,-2.99123072624207,-6.58268022537231
175,810301070,82.95113372802734,5.08629655838013,80.21470642089844,-7.54237937927246,3.05837535858154,-2.19052958488464,-13.36942672729492,-3.60510158538818,-4.06272554397583
176,810309403,82.86402893066406,5.07347059249878,80.16686248779297,-7.70926094055176,3.21183776855469,-2.17791342735291,-10.47560882568359,-4.77982187271118,-0.97877132892609
177,810317736,82.79418182373047,5.05541515350342,80.10869598388672,-8.04015541076660,3.53810119628906,-1.79864525794983,-9.42468166351318,-6.24925899505615,2.54937243461609
178,810326069,82.71537780761719,4.98822212219238,80.02555084228516,-8.35570430755615,3.77121472358704,-1.32599353790283,-9.11503219604492,-9.79104328155518,4.94404745101929
179,810334402,82.64270782470703,4.94078540802002,79.91245269775391,-8.24571990966797,3.93148016929626,-1.10400414466858,-9.16879558563232,-13.25816059112549,5.29757547378540
180,810342735,82.57703399658203,4.85717248916626,79.79258728027344,-7.91103649139404,4.23152828216553,-0.94665968418121,-7.18546056747437,-14.41784667968750,6.30767440795898
181,810351068,82.51591491699219,4.79280757904053,79.66246032714844,-7.75384712219238,4.34699869155884,-0.73077565431595,-7.55538225173950,-15.59643650054932,7.10207462310791
182,810359401,82.41714477539062,4.69779157638550,79.50858306884766,-7.53375244140625,4.26163625717163,-0.79630637168884,-10.85585594177246,-18.65175819396973,7.09213733673096
183,810367734,82.30838775634766,4.62102365493774,79.34541320800781,-7.26045083999634,4.26659727096558,-1.01047182083130,-12.90504741668701,-19.77735137939453,8.04142665863037
184,810376067,82.17755126953125,4.50989246368408,79.19340515136719,-7.28651285171509,4.19992399215698,-1.22683906555176,-14.78239250183105,-18.73403167724609,8.96064472198486
185,810384400,82.02922821044922,4.42927885055542,79.04676055908203,-7.39930868148804,3.95877051353455,-1.54824292659760,-17.84685707092285,-17.94257736206055,8.69028759002686
186,810392733,81.84578704833984,4.32561159133911,78.91953277587891,-7.39389562606812,3.84864830970764,-1.77065157890320,-21.37898635864258,-15.73350334167480,8.38406944274902
187,810401066,81.62525939941406,4.26301479339600,78.81491851806641,-7.32535839080811,3.60192918777466,-1.89777076244354,-26.99481773376465,-12.71263980865479,7.19477701187134
188,810409399,81.35655212402344,4.18546581268311,78.72789764404297,-7.18504333496094,3.50167918205261,-1.77483153343201,-32.00976181030273,-10.59359741210938,5.86419296264648
189,810417732,81.08055114746094,4.13809633255005,78.62908172607422,-7.13567447662354,3.37298798561096,-1.44897532463074,-33.79630279541016,-11.81086444854736,5.41010427474976
190,810426065,80.79589843750000,4.05407524108887,78.50217437744141,-7.16122150421143,3.36247944831848,-0.87269687652588,-33.60606765747070,-15.50718307495117,5.76744842529297
191,810434398,80.52799987792969,3.98035216331482,78.33462524414062,-7.16292762756348,3.33887696266174,-0.37514445185661,-32.24856567382812,-20.52686119079590,7.10873937606812
192,810442731,80.26672363281250,3.85801029205322,78.11184692382812,-7.17821788787842,3.31870460510254,-0.17691922187805,-30.06035232543945,-27.66487693786621,8.23113441467285
193,810451064,80.01816558837891,3.72773933410645,77.82488250732422,-7.24480009078979,3.41236114501953,-0.29804518818855,-28.92339515686035,-35.91563034057617,11.19547843933105
194,810459397,79.76092529296875,3.52296161651611,77.49106597900391,-7.47319507598877,3.27479290962219,-0.31495887041092,-28.86902809143066,-42.58948135375977,15.38121891021729
195,810467730,79.47875213623047,3.32473921775818,77.13906097412109,-7.58742904663086,3.05091905593872,-0.26348394155502,-32.59933471679688,-45.21761322021484,17.54771041870117
196,810476063,79.17683410644531,3.10052204132080,76.81963348388672,-7.31401491165161,2.66932845115662,-0.55598133802414,-34.61732482910156,-41.51029205322266,17.56110382080078
197,810484396,78.88264465332031,2.92674517631531,76.57012176513672,-6.99729728698730,2.53079891204834,-0.34256643056870,-34.90744018554688,-32.84812545776367,16.61433792114258
198,810492729,78.60393524169922,2.73417735099792,76.35523986816406,-6.86995935440063,2.44103193283081,-0.01889645121992,-32.70733642578125,-28.69183540344238,15.84426307678223
199,810501062,78.32238006591797,2.56375432014465,76.17658233642578,-6.59294462203979,2.42288970947266,-0.06645536422729,-33.32826614379883,-23.98940467834473,13.96091747283936
200,810509395,78.00376892089844,2.44889712333679,76.04544830322266,-6.25764179229736,2.28075933456421,-0.44984748959541,-38.63248062133789,-17.82279777526855,12.13190937042236
201,810517728,77.65333557128906,2.34534263610840,75.96950531005859,-6.09984254837036,2.09066653251648,-0.53840035200119,-42.72264480590820,-11.16854381561279,12.08075809478760
202,810526061,77.30644226074219,2.23996281623840,75.91870880126953,-6.43794918060303,2.12544083595276,-1.02404558658600,-41.91771316528320,-7.60564613342285,9.23651981353760
203,810534394,76.98282623291016,2.13995218276978,75.89929962158203,-6.14838695526123,2.55333781242371,-1.43960809707642,-39.27886962890625,-3.85471725463867,9.39017963409424
204,810542727,76.70117187500000,2.03273367881775,75.88944244384766,-6.70476579666138,2.96077942848206,-1.06109726428986,-34.84375381469727,-3.77713084220886,14.10550689697266
205,810551060,76.43457794189453,1.87961232662201,75.85993957519531,-6.85079908370972,3.26629424095154,-0.79303151369095,-33.07352828979492,-7.38733482360840,18.92301559448242
206,810559393,76.16049194335938,1.65218377113342,75.82933807373047,-7.08027791976929,3.68987965583801,-0.00932273827493,-33.31290435791016,-8.94924354553223,23.85935211181641
207,810567726,75.84577178955078,1.41490650177002,75.80696868896484,-7.21063661575317,2.71833729743958,-0.06097963824868,-38.22977447509766,-8.40950202941895,25.18950653076172
208,810576059,75.54655456542969,1.22097504138947,75.82709503173828,-6.80741834640503,2.32022619247437,-0.49866908788681,-37.16637039184570,-3.14200115203857,25.02682685852051
209,810584392,75.24379730224609,1.02762460708618,75.88223266601562,-7.36365079879761,2.17736649513245,-0.31225126981735,-37.61234664916992,0.79500323534012,25.90698814392090
210,810592725,74.91751098632812,0.80899101495743,75.95167541503906,-7.89418125152588,2.31956219673157,-0.39078471064568,-39.82624053955078,2.37663412094116,25.71283531188965
211,810601058,74.58718109130859,0.57251942157745,76.02809906005859,-8.56483840942383,2.95672345161438,-0.05592236667871,-40.28364181518555,2.46689939498901,28.00270652770996
212,810609391,74.26218414306641,0.35104146599770,76.09638214111328,-9.08684730529785,3.58287477493286,0.13089919090271,-40.18159103393555,0.94574344158173,29.51494598388672
213,810617724,73.87995147705078,0.12412853538990,76.15591430664062,-9.65114402770996,4.15895509719849,0.78669220209122,-46.95490646362305,-0.46925401687622,29.87243652343750
214,810626057,73.46603393554688,-0.12593001127243,76.21287536621094,-9.48582649230957,4.02146530151367,0.91031324863434,-50.20545578002930,-0.79624646902084,28.93926620483398
215,810634390,72.99077606201172,-0.35718876123428,76.27595520019531,-9.81681442260742,4.06062030792236,0.97464424371719,-57.53588867187500,0.32101151347160,26.96994590759277
216,810642723,72.52737426757812,-0.53591126203537,76.34910583496094,-10.20549583435059,2.40065145492554,0.36977720260620,-56.50010681152344,1.99831354618073,24.85150909423828
217,810651056,72.06791687011719,-0.63195210695267,76.48058319091797,-10.06908321380615,2.45114374160767,-0.08341839164495,-55.84958267211914,11.39971446990967,17.60639762878418
218,810659389,71.57353973388672,-0.76989483833313,76.61567687988281,-12.09546184539795,1.86857545375824,0.11603254824877,-59.66025543212891,11.31903553009033,19.00856018066406
219,810667722,71.13187408447266,-0.86784291267395,76.74893951416016,-12.29166126251221,1.48027944564819,-0.35498753190041,-53.30718231201172,12.47371768951416,14.46840667724609
220,810676055,70.70324707031250,-0.93285733461380,76.88726043701172,-14.08780002593994,1.77714371681213,0.10740250349045,-52.03456115722656,12.82440376281738,14.74990653991699
221,810684388,70.27363586425781,-0.96820998191833,77.01366424560547,-14.58732891082764,0.89005392789841,-0.49833974242210,-52.12382888793945,12.41370296478271,11.28739070892334
222,810692721,69.89597320556641,-1.01140201091766,77.15133666992188,-15.28252029418945,1.00363588333130,-0.15193343162537,-45.57153701782227,14.84323883056641,8.72672462463379
223,810701054,69.54527282714844,-1.02772021293640,77.27323913574219,-15.81291675567627,1.01562964916229,-0.00742023997009,-42.35743713378906,14.12032032012939,5.12635231018066
224,810709387,69.21720123291016,-0.99733310937881,77.38513946533203,-15.68447971343994,1.75367474555969,-0.10751103609800,-39.93386077880859,13.11180686950684,3.87517094612122
225,810717720,68.92121124267578,-0.93072599172592,77.50413513183594,-15.42969512939453,2.26491689682007,-0.13490243256092,-36.03879165649414,15.23450851440430,0.54103738069534
226,810726053,68.65903472900391,-0.89070963859558,77.63372802734375,-15.49984455108643,2.86219525337219,-0.32327499985695,-31.74767875671387,17.30998039245605,-0.61968588829041
227,810734386,68.43394470214844,-0.82404118776321,77.75729370117188,-15.85262775421143,3.31127333641052,-0.19385805726051,-27.32244491577148,17.80540275573730,-3.79769802093506
228,810742719,68.24772644042969,-0.70323860645294,77.86874389648438,-16.41203689575195,3.64934611320496,-0.03292953968048,-22.96502494812012,16.61720848083496,-5.36149930953979
229,810751052,68.07398223876953,-0.52017217874527,77.97665405273438,-15.80442333221436,3.74905538558960,-0.62157130241394,-21.54494667053223,18.87526130676270,-12.11029338836670
230,810759385,67.89363861083984,-0.39730337262154,78.05882263183594,-15.83710765838623,4.21685695648193,-0.69077843427658,-22.09616661071777,15.74381637573242,-11.73609352111816
231,810767718,67.76676940917969,-0.19481445848942,78.13558959960938,-14.12514019012451,2.64629721641541,-1.84648537635803,-15.71063232421875,18.77766990661621,-20.79946899414062
232,810776051,67.70848083496094,0.07605929672718,78.23072814941406,-14.07742691040039,3.68681359291077,-1.40754258632660,-7.92756080627441,21.42831039428711,-22.05546188354492
233,810784384,67.69717407226562,0.31214120984077,78.25502777099609,-14.65347576141357,3.53434634208679,-0.98767113685608,-2.45556092262268,11.99080944061279,-21.31743049621582
234,810792717,67.80464935302734,0.45131963491440,78.22775268554688,-14.66447544097900,3.42368078231812,-0.93869304656982,12.38790798187256,4.36806201934814,-18.45414352416992
235,810801050,67.99777984619141,0.63011813163757,78.21327972412109,-13.11185932159424,2.86121487617493,-2.41439962387085,22.66202354431152,7.54100465774536,-22.29977416992188
236,810809383,68.22664642333984,0.80361527204514,78.23240661621094,-12.90137386322021,4.99045276641846,-2.89219522476196,26.28899955749512,8.42367076873779,-14.50753021240234
237,810817716,68.52484893798828,0.86845082044601,78.18875885009766,-12.97496032714844,5.32080745697021,-2.58916068077087,34.48537063598633,-3.36635470390320,-5.17907571792603
238,810826049,68.93576812744141,0.80164450407028,78.08346557617188,-12.25156593322754,5.03271245956421,-2.53437352180481,48.96188354492188,-13.61020469665527,1.13708245754242
239,810834382,69.43745422363281,0.70465940237045,77.98039245605469,-11.75858879089355,5.37521505355835,-3.30104327201843,59.83411788940430,-14.62126827239990,4.72475290298462
240,810842715,70.02951049804688,0.60873329639435,77.87136840820312,-11.31424713134766,6.06945610046387,-2.56327581405640,69.61892700195312,-17.40336227416992,10.33886146545410
241,810851048,70.67180633544922,0.47902557253838,77.75624847412109,-9.97844123840332,6.50647783279419,-2.28050661087036,75.37766265869141,-19.18959808349609,14.06233024597168
242,810859381,71.34614562988281,0.25171041488647,77.62901306152344,-8.86448383331299,6.97695493698120,-1.83273708820343,80.48648071289062,-22.24300765991211,19.07928276062012
243,810867714,72.06423950195312,-0.01301663368940,77.50354003906250,-7.92928361892700,7.24948930740356,-1.23833811283112,85.67436981201172,-23.19437408447266,23.68339157104492
244,810876047,72.82775115966797,-0.26451537013054,77.38632202148438,-7.64712524414062,7.98440885543823,-0.26649424433708,89.62501525878906,-23.10223197937012,28.48389244079590
245,810884380,73.57025909423828,-0.53356683254242,77.25003051757812,-7.52779483795166,7.20160913467407,-0.10247102379799,86.98419189453125,-25.38611412048340,29.88086891174316
246,810892713,74.31121063232422,-0.85176795721054,77.10797119140625,-7.35863685607910,7.06178760528564,0.13832211494446,88.17380523681641,-25.87246131896973,30.24132537841797
247,810901046,75.05329895019531,-1.09740519523621,76.97434234619141,-7.34454250335693,7.13959169387817,-0.11931833624840,86.85530853271484,-23.42806243896484,27.69931030273438
248,810909379,75.74716949462891,-1.36051380634308,76.83718872070312,-7.25984001159668,6.79931926727295,-0.76114177703857,82.37802124023438,-22.81122016906738,24.66999435424805
249,810917712,76.43273162841797,-1.57093024253845,76.69240570068359,-6.99583578109741,6.58472967147827,-1.38427698612213,79.94364166259766,-22.92576217651367,23.68065643310547
250,810926045,77.09796142578125,-1.82524144649506,76.54296112060547,-6.98971891403198,6.54199790954590,-1.67508208751678,78.76203918457031,-23.36606979370117,23.86886978149414
251,810934378,77.77299499511719,-2.04536771774292,76.37371826171875,-6.93280315399170,6.45111274719238,-2.10863947868347,78.38574218750000,-25.34022331237793,24.57923316955566
252,810942711,78.45606994628906,-2.32492041587830,76.16971588134766,-6.99776983261108,6.25782775878906,-2.43609762191772,80.49843597412109,-29.78146934509277,26.05689048767090
253,810951044,79.17149353027344,-2.56816220283508,75.92514801025391,-6.89493799209595,5.91677618026733,-2.57169985771179,82.57138824462891,-33.99728393554688,26.06082153320312
254,810959377,79.88121032714844,-2.83096075057983,75.66174316406250,-6.81898880004883,5.70398187637329,-2.72267436981201,83.14147186279297,-35.71315383911133,23.54193305969238
255,810967710,80.60042572021484,-3.03198719024658,75.38526153564453,-6.88366317749023,5.75230932235718,-2.73932147026062,82.48533630371094,-36.09183120727539,21.19984626770020
256,810976043,81.29075622558594,-3.23882079124451,75.10176086425781,-6.85919380187988,5.58001422882080,-2.70667719841003,80.44278717041016,-36.38702392578125,17.43774414062500
257,810984376,81.98081970214844,-3.36919879913330,74.81134033203125,-6.65351724624634,5.06077241897583,-2.95516800880432,78.60096740722656,-35.87538146972656,13.40976905822754
258,810992709,82.66025543212891,-3.52439022064209,74.52692413330078,-6.56513929367065,5.08822250366211,-2.83238172531128,78.94056701660156,-35.18310546875000,12.17792129516602
259,811001042,83.35985565185547,-3.63704037666321,74.23858642578125,-6.50865316390991,5.09371614456177,-2.68674826622009,79.52696990966797,-34.90890121459961,12.15666198730469
260,811009375,84.05560302734375,-3.80074453353882,73.92275238037109,-6.54938220977783,5.07681274414062,-2.26331400871277,80.48986816406250,-38.68174362182617,13.65892601013184
261,811017708,84.76882171630859,-3.93916654586792,73.56033325195312,-6.54976034164429,4.97891378402710,-1.98580694198608,80.38213348388672,-43.64388656616211,15.21106338500977
262,811026041,85.46782684326172,-4.12088727951050,73.16721343994141,-6.31273126602173,4.73402547836304,-2.29436945915222,80.01984405517578,-47.68001937866211,16.00214576721191
263,811034374,86.20663452148438,-4.29035139083862,72.75275421142578,-6.28342056274414,5.01735925674438,-2.19549369812012,82.78501129150391,-49.66578674316406,19.55923652648926
264,811042707,86.89763641357422,-4.50760269165039,72.31127166748047,-6.44704723358154,5.42897081375122,-1.96613705158234,78.31446838378906,-53.23017501831055,21.12895965576172
265,811051040,87.59808349609375,-4.67936468124390,71.81349182128906,-6.39372825622559,4.52037286758423,-2.62464380264282,77.10564422607422,-59.05638504028320,20.59667396545410
266,811059373,88.30554199218750,-4.88835287094116,71.29266357421875,-5.98807096481323,4.50664138793945,-2.81209754943848,79.13634490966797,-62.07546997070312,21.12093925476074
267,811067706,89.03768920898438,-5.05605173110962,70.78236389160156,-5.78554344177246,4.36533498764038,-3.32121610641479,80.39010620117188,-59.90222930908203,21.55994415283203
268,811076039,89.77120208740234,-5.25226688385010,70.29259490966797,-5.66761445999146,4.81165170669556,-3.50927853584290,82.19559478759766,-57.71319961547852,21.22324180603027
269,811084372,90.51317596435547,-5.40371513366699,69.81171417236328,-5.79841041564941,4.99278974533081,-3.42183375358582,81.46876525878906,-55.67147445678711,21.07019042968750
270,811092705,91.24903869628906,-5.58602285385132,69.33378601074219,-5.81480455398560,4.88013315200806,-3.71340394020081,82.26292419433594,-55.68232345581055,21.03927421569824
271,811101038,92.02896118164062,-5.73774242401123,68.83050537109375,-5.66769456863403,5.15413761138916,-3.85274243354797,85.40221405029297,-57.66370773315430,22.51314544677734
272,811109371,92.80603027343750,-5.92831373214722,68.31452178955078,-5.64735841751099,5.41219854354858,-4.16355085372925,86.40961456298828,-59.51589965820312,23.73865699768066
273,811117704,93.62464141845703,-6.09855651855469,67.76270294189453,-5.69634056091309,5.20914745330811,-4.34567451477051,89.04634857177734,-62.54035568237305,26.49111175537109
274,811126037,94.47270965576172,-6.32375812530518,67.18312072753906,-5.80037117004395,5.72251939773560,-4.07951688766479,93.69319915771484,-65.99834442138672,30.13195991516113
275,811134370,95.35379791259766,-6.53429508209229,66.55821228027344,-6.17729854583740,5.96054220199585,-3.87843656539917,95.08032226562500,-69.84719085693359,33.76840972900391
276,811142703,96.22579956054688,-6.78131818771362,65.90628051757812,-6.45702457427979,6.09117507934570,-3.80631542205811,95.01715850830078,-73.25814056396484,35.62586212158203
277,811151036,97.10543060302734,-6.98141956329346,65.23772430419922,-6.55400180816650,6.30704402923584,-3.87652897834778,93.75690460205078,-73.98775482177734,35.19150924682617
278,811159369,97.95546722412109,-7.19248819351196,64.58731842041016,-6.74986076354980,6.69554805755615,-3.92213964462280,91.81986999511719,-72.40316009521484,33.55576324462891
279,811167702,98.79032135009766,-7.35119628906250,63.93347549438477,-6.89979028701782,6.92295742034912,-4.20146942138672,88.14358520507812,-71.78545379638672,32.19248962402344
280,811176035,99.60159301757812,-7.52210617065430,63.27617263793945,-7.17997598648071,7.16928768157959,-4.50743389129639,86.58599853515625,-72.86808776855469,31.04233551025391
281,811184368,100.39179229736328,-7.62746524810791,62.58617782592773,-7.43600225448608,7.32577085494995,-4.08610057830811,81.84760284423828,-76.07129669189453,28.67798995971680
282,811192701,101.16288757324219,-7.74034023284912,61.87544250488281,-7.44016027450562,6.84036445617676,-4.19186687469482,80.56572723388672,-79.43732452392578,27.40946578979492
283,811201034,101.94287872314453,-7.79091024398804,61.15588760375977,-7.56571912765503,7.30238246917725,-3.56000447273254,79.95658874511719,-79.94204711914062,25.05679321289062
284,811209367,102.66491699218750,-7.84927415847778,60.39715576171875,-8.10837936401367,7.05726385116577,-2.98907232284546,73.69544219970703,-85.57360076904297,24.36373901367188
285,811217700,103.37930297851562,-7.83312749862671,59.58367538452148,-8.32575798034668,5.74628639221191,-3.40516304969788,70.59585571289062,-91.94010162353516,21.91894721984863
286,811226033,104.09564971923828,-7.80493593215942,58.73559188842773,-8.50253772735596,5.56606912612915,-2.87494564056396,71.55014801025391,-97.68501281738281,18.96014976501465
287,811234366,104.77685546875000,-7.68700170516968,57.88136672973633,-8.37982559204102,5.14556598663330,-2.99169087409973,66.25793457031250,-99.08828735351562,13.68861389160156
288,811242699,105.44770050048828,-7.56819629669189,57.01898574829102,-8.21875286102295,4.76488304138184,-3.29664826393127,66.19847106933594,-101.67830657958984,11.28271770477295
289,811251032,106.12316894531250,-7.38363027572632,56.16247558593750,-7.72337532043457,4.69896268844604,-3.64309740066528,66.12474060058594,-101.21375274658203,8.51875114440918
290,811259365,106.77983856201172,-7.21116113662720,55.34914398193359,-7.17362928390503,4.35265159606934,-4.00792121887207,65.83455657958984,-97.64875793457031,5.87473535537720
291,811267698,107.45954132080078,-6.99365043640137,54.57727432250977,-6.57556247711182,4.12082576751709,-4.24795818328857,68.57852935791016,-92.54378509521484,4.17843532562256
292,811276031,108.12554931640625,-6.81294822692871,53.87086486816406,-6.02411746978760,4.28787708282471,-4.65004396438599,69.16628265380859,-85.69500732421875,3.37471103668213
293,811284364,108.78387451171875,-6.61118888854980,53.21747589111328,-5.69332408905029,4.70134878158569,-5.05134439468384,68.25905609130859,-78.43587493896484,3.62398743629456
294,811292697,109.42129516601562,-6.47016334533691,52.60619354248047,-5.80803871154785,5.00310277938843,-5.55117893218994,67.56370544433594,-73.34272766113281,6.16741132736206
295,811301030,110.06615447998047,-6.31312227249146,52.00050354003906,-6.15180349349976,5.59218168258667,-5.52576160430908,67.61950683593750,-71.14801788330078,8.46190261840820
296,811309363,110.68997955322266,-6.19880104064941,51.39140701293945,-6.71298074722290,5.84131669998169,-5.33043050765991,66.32165527343750,-71.82680511474609,10.75093746185303
297,811317696,111.31617736816406,-6.07688570022583,50.76633071899414,-6.87047863006592,5.58474063873291,-5.28931283950806,66.55508422851562,-73.80960083007812,11.37967109680176
298,811326029,111.98330688476562,-5.92015552520752,50.11122512817383,-7.06252574920654,6.06561517715454,-4.54279708862305,70.14137268066406,-76.24536132812500,13.08834457397461
299,811334362,112.63838195800781,-5.76095438003540,49.44545364379883,-7.15506601333618,6.34418392181396,-4.30362749099731,68.74394989013672,-77.33790588378906,14.20923519134521
300,811342695,113.28056335449219,-5.63116741180420,48.75895309448242,-7.41893100738525,6.66259860992432,-4.03645038604736,68.30722808837891,-80.49807739257812,15.95320510864258
301,811351028,113.90541076660156,-5.48999595642090,48.05513763427734,-7.20250272750854,7.16969633102417,-3.86857724189758,66.22780609130859,-82.75456237792969,16.42966270446777
302,811359361,114.50870513916016,-5.30530023574829,47.32895278930664,-7.11436891555786,7.56200122833252,-3.70566344261169,62.60129547119141,-84.65840148925781,17.09041023254395
303,811367694,115.07478332519531,-5.09500122070312,46.59297180175781,-7.40312623977661,6.93043613433838,-3.81698298454285,58.44241333007812,-86.85708618164062,15.73325061798096
304,811376027,115.63484191894531,-4.88875532150269,45.83765411376953,-7.83561992645264,6.45801258087158,-3.71676874160767,58.73740768432617,-91.13638305664062,14.61972427368164
305,811384360,116.20633697509766,-4.64858484268188,45.07381057739258,-7.61583185195923,5.76173305511475,-3.94309735298157,60.38257598876953,-93.69519042968750,12.32133769989014
306,811392693,116.79203033447266,-4.34098052978516,44.31186294555664,-7.82730007171631,5.20318555831909,-3.95323133468628,61.81402587890625,-94.34510040283203,9.43112564086914
307,811401026,117.36988830566406,-3.98956346511841,43.54882812500000,-8.07540893554688,4.49179458618164,-4.25029802322388,61.40080642700195,-96.73394012451172,5.86351203918457
308,811409359,117.95964813232422,-3.62941622734070,42.78156661987305,-8.02691841125488,4.09292554855347,-4.47945547103882,64.06472015380859,-100.37477874755859,2.70314240455627
309,811417692,118.56372833251953,-3.23412966728210,42.01934051513672,-7.43602037429810,3.99081826210022,-4.78459692001343,66.43415069580078,-101.82071685791016,-0.23156851530075
310,811426025,119.19509124755859,-2.78175187110901,41.24711608886719,-6.98706150054932,3.97577357292175,-5.07554912567139,69.63330078125000,-103.27555847167969,-0.99462711811066
311,811434358,119.84861755371094,-2.32096767425537,40.47598648071289,-6.71248102188110,4.31116867065430,-4.79635381698608,72.91387176513672,-103.60089111328125,-0.74803584814072
312,811442691,120.50507354736328,-1.89300358295441,39.72387695312500,-6.97388362884521,4.51764059066772,-4.32495927810669,74.86496734619141,-102.72603607177734,-0.73151457309723
313,811451024,121.15680694580078,-1.44586038589478,38.97233963012695,-7.44510173797607,4.98969697952271,-4.25823163986206,74.99558258056641,-103.84934997558594,-1.55315434932709
314,811459357,121.80940246582031,-0.92969781160355,38.19589614868164,-7.80559253692627,5.74427700042725,-4.35306406021118,75.03322601318359,-107.55133819580078,-2.43821763992310
315,811467690,122.44750976562500,-0.41146951913834,37.38939285278320,-8.27601623535156,5.63837146759033,-4.58272552490234,74.85175323486328,-113.97008514404297,-2.87338805198669
316,811476023,123.09973907470703,0.19356536865234,36.52744674682617,-8.57983875274658,5.09332466125488,-4.60347557067871,76.78497314453125,-121.91401672363281,-3.32491636276245
317,811484356,123.75427246093750,0.80811077356339,35.64986038208008,-8.64334297180176,4.60693645477295,-4.82061195373535,78.87655639648438,-127.45475006103516,-5.21011495590210
318,811492689,124.41431427001953,1.50844907760620,34.76358413696289,-8.90357303619385,4.14732408523560,-5.41933774948120,80.11598205566406,-130.63243103027344,-8.25540924072266
319,811501022,125.08912658691406,2.25396656990051,33.88896942138672,-9.55580425262451,3.37354183197021,-6.12956666946411,83.08815002441406,-132.46842956542969,-11.91190052032471
320,811509355,125.80424499511719,3.04215550422668,33.00050354003906,-9.83834457397461,2.86715340614319,-6.82176780700684,90.13455200195312,-140.55827331542969,-16.95093536376953
321,811517688,126.56942749023438,3.88426923751831,32.12108230590820,-9.72149085998535,2.63312149047852,-7.39466142654419,97.60099029541016,-143.62658691406250,-21.03636932373047
322,811526021,127.39983367919922,4.81866073608398,31.25118255615234,-10.52158546447754,2.56338620185852,-6.52407884597778,106.07906341552734,-145.53115844726562,-25.14034843444824
323,811534354,128.29054260253906,5.81545734405518,30.40960502624512,-11.29996776580811,2.87950134277344,-6.06101369857788,114.44618225097656,-147.42585754394531,-30.90320205688477
324,811542687,129.24653625488281,6.84524345397949,29.54341697692871,-11.95192146301270,4.69500637054443,-5.05223608016968,125.56525421142578,-156.87281799316406,-33.31941223144531
325,811551020,130.24261474609375,7.96828937530518,28.57838630676270,-12.60798263549805,5.08752822875977,-5.66131067276001,133.85461425781250,-173.40850830078125,-31.86350250244141
326,811559353,131.34436035156250,9.25818920135498,27.52344894409180,-12.88567161560059,4.55400466918945,-6.23318576812744,149.36900329589844,-190.07682800292969,-33.53585433959961
327,811567686,132.45697021484375,10.65871143341064,26.43000221252441,-12.53400325775146,4.83432006835938,-6.25343847274780,154.34494018554688,-202.26663208007812,-36.78481674194336
328,811576019,133.49578857421875,12.09148311614990,25.35733032226562,-12.54518318176270,4.93011236190796,-7.02281999588013,149.41795349121094,-208.47941589355469,-41.42047500610352
329,811584352,134.45634460449219,13.62062358856201,24.28159523010254,-12.82512378692627,5.70864629745483,-7.36952352523804,143.37590026855469,-216.92645263671875,-46.32328796386719
330,811592685,135.35690307617188,15.31572055816650,23.16639709472656,-12.35298061370850,4.90860652923584,-9.51783561706543,139.69531250000000,-228.77601623535156,-50.67109298706055
331,811601018,136.31622314453125,17.08190345764160,22.06272697448730,-10.88397979736328,5.12637090682983,-9.75330829620361,150.11103820800781,-233.87316894531250,-54.52182388305664
332,811609351,137.21524047851562,18.83244132995605,20.98756027221680,-10.60998344421387,4.87856626510620,-10.66548442840576,147.02484130859375,-236.06297302246094,-56.11896133422852
333,811617684,138.18367004394531,20.64409255981445,19.92467880249023,-10.84956359863281,4.36125469207764,-10.97510147094727,158.66377258300781,-240.53994750976562,-59.17421340942383
334,811626017,139.14707946777344,22.55360984802246,18.86516761779785,-10.95657348632812,4.27092933654785,-10.66365814208984,160.37362670898438,-243.33177185058594,-60.99943542480469
335,811634350,140.13729858398438,24.53720283508301,17.81600189208984,-11.19459533691406,4.28988552093506,-10.55647850036621,166.86694335937500,-249.53500366210938,-64.79980468750000
336,811642683,141.07089233398438,26.57112503051758,16.72365570068359,-11.46457958221436,4.66973733901978,-9.78031826019287,167.92881774902344,-262.61819458007812,-65.16233825683594
337,811651016,142.17187500000000,28.71232223510742,15.51300907135010,-10.33250331878662,4.50760173797607,-11.34172058105469,198.88452148437500,-280.27798461914062,-60.28474426269531
338,811659349,143.22454833984375,31.03204917907715,13.86630439758301,-12.13313484191895,9.33151149749756,-4.84620714187622,222.50662231445312,-318.80874633789062,-31.34574317932129
339,811667682,143.98680114746094,33.58450317382812,11.69241523742676,-12.79863357543945,7.23372888565063,-7.62532329559326,228.94352722167969,-371.20645141601562,-3.49494385719299
340,811676015,144.33319091796875,36.06804275512695,9.51942062377930,-7.88785076141357,11.01397418975830,-3.53141498565674,189.84613037109375,-365.86105346679688,-2.59143400192261
341,811684348,144.66952514648438,38.73133087158203,7.25778388977051,-4.69268226623535,6.16337490081787,-6.00665330886841,204.57508850097656,-384.31939697265625,-11.66774749755859
342,811692681,144.93206787109375,41.31778717041016,5.27004432678223,2.14655756950378,8.00440406799316,-8.79395294189453,183.68360900878906,-353.00054931640625,-29.48165512084961
343,811701014,145.31282043457031,43.63926696777344,3.67707681655884,1.19220888614655,9.64397239685059,-6.21755456924438,173.91264343261719,-304.27151489257812,-44.06342315673828
344,811709347,145.66845703125000,45.94578170776367,2.16534519195557,-2.21722054481506,8.89017581939697,1.26508080959320,169.84365844726562,-299.94946289062500,-52.35453033447266
345,811717680,145.92948913574219,48.39331054687500,0.74975883960724,-0.15217462182045,1.51113295555115,1.66285192966461,155.61007690429688,-303.68197631835938,-70.72445678710938
346,811726013,146.51280212402344,50.66006088256836,-0.41339194774628,5.67747497558594,2.37030744552612,-0.36918371915817,175.52827453613281,-275.40527343750000,-77.56727600097656
347,811734346,146.99911499023438,52.78702163696289,-1.63518488407135,5.10570049285889,10.73022460937500,0.77946352958679,173.25315856933594,-259.63256835937500,-65.50466156005859
348,811742679,147.17810058593750,54.79443740844727,-3.14286899566650,0.93001073598862,12.76404285430908,4.19665336608887,166.81774902343750,-259.23513793945312,-42.79328918457031
349,811751012,147.15557861328125,56.67502975463867,-4.81140232086182,0.52535480260849,10.60422801971436,4.55200290679932,163.24441528320312,-247.64413452148438,-30.01299858093262
350,811759345,146.98919677734375,58.38988113403320,-6.44394588470459,0.47901731729507,13.13334941864014,4.58951997756958,144.68022155761719,-228.82191467285156,-25.21748352050781
351,811767678,146.64515686035156,60.01472854614258,-8.11908912658691,-1.04464113712311,13.75373172760010,4.11351966857910,130.75077819824219,-218.44390869140625,-22.21390724182129
352,811776011,146.09928894042969,61.56331634521484,-9.84523010253906,-1.07833194732666,12.74800491333008,4.02868509292603,116.14735412597656,-207.84130859375000,-21.93829917907715
353,811784344,145.30824279785156,63.03933334350586,-11.69966030120850,-2.23080635070801,11.05546760559082,5.12654638290405,103.37725830078125,-201.89019775390625,-18.17995452880859
354,811792677,144.38612365722656,64.46873474121094,-13.58669376373291,-2.64672207832336,9.11561203002930,5.87088060379028,91.81058502197266,-196.82557678222656,-18.50686645507812
355,811801010,143.30955505371094,65.82196807861328,-15.55693912506104,-2.60415816307068,8.26968669891357,5.36787939071655,86.68071746826172,-186.97297668457031,-19.81552314758301
356,811809343,142.27606201171875,67.12560272216797,-17.49209022521973,-2.01026177406311,10.03873252868652,6.03879117965698,88.26678466796875,-179.56718444824219,-22.38842201232910
357,811817676,141.04827880859375,68.39678192138672,-19.52309989929199,-1.24040007591248,10.08006477355957,6.95183134078979,79.54639434814453,-174.00543212890625,-26.85744667053223
358,811826009,139.83882141113281,69.62140655517578,-21.48555946350098,-0.49017468094826,9.38057708740234,6.82557821273804,74.09893798828125,-165.94743347167969,-30.16211318969727
359,811834342,138.50360107421875,70.79732513427734,-23.48125457763672,-0.60697275400162,9.06316280364990,6.36485624313354,66.38838958740234,-156.81163024902344,-35.83320999145508
360,811842675,137.27590942382812,71.93838500976562,-25.33212661743164,-0.58924490213394,9.18055248260498,5.03380489349365,62.49985885620117,-148.09170532226562,-40.79318237304688
361,811851008,135.90078735351562,73.04824829101562,-27.28102111816406,-0.67633199691772,10.22142887115479,5.32666110992432,59.18795394897461,-142.07130432128906,-45.62937927246094
362,811859341,134.69572448730469,74.14675903320312,-28.97953033447266,-0.82289576530457,10.34429550170898,5.25653314590454,50.28563690185547,-133.10791015625000,-53.42691421508789
363,811867674,133.35427856445312,75.21925354003906,-30.67790031433105,-0.42626810073853,10.97393989562988,6.22879409790039,36.67604827880859,-125.11091613769531,-60.64973831176758
364,811876007,132.33955383300781,76.27769470214844,-31.91364288330078,-0.56102460622787,9.97125911712646,4.96450281143188,21.31972694396973,-112.07202148437500,-69.91085052490234
365,811884340,131.33973693847656,77.30345153808594,-33.03335571289062,-0.39022645354271,8.37820529937744,4.20630931854248,11.83551025390625,-101.86332702636719,-77.02828216552734
366,811892673,130.77919006347656,78.29701232910156,-33.71041870117188,-1.22663664817810,7.32937622070312,3.88820314407349,11.51944732666016,-90.18845367431641,-80.22800445556641
367,811901006,130.10456848144531,79.23486328125000,-34.51335525512695,-1.73291695117950,7.43747425079346,5.11140584945679,14.37625026702881,-84.17307281494141,-79.36985015869141
368,811909339,129.67651367187500,80.13851165771484,-35.15707778930664,-2.46459007263184,7.72268772125244,6.59867858886719,24.00119018554688,-79.08548736572266,-75.93656921386719
369,811917672,128.86012268066406,80.97171783447266,-36.27257919311523,-3.43196725845337,8.29023456573486,7.11964464187622,34.74679183959961,-77.01263427734375,-69.41293334960938
370,811926005,127.94052124023438,81.77281188964844,-37.57346343994141,-3.82517719268799,9.31353759765625,7.59668159484863,43.35098648071289,-76.99623107910156,-62.39166641235352
371,811934338,126.27647399902344,82.52931976318359,-39.66141128540039,-3.71772289276123,10.12093257904053,8.61021900177002,49.00287246704102,-78.55776977539062,-57.77577209472656
372,811942671,124.61367797851562,83.25543975830078,-41.76327133178711,-3.57715320587158,10.39583873748779,7.28008651733398,50.12467956542969,-74.87896728515625,-54.47301101684570
373,811951004,122.18256378173828,83.92652893066406,-44.63212966918945,-3.64455485343933,10.98898315429688,6.83826208114624,50.72956848144531,-72.68241882324219,-52.29016494750977
374,811959337,119.43658447265625,84.58952331542969,-47.81306076049805,-4.06035327911377,11.22756671905518,6.15793514251709,49.66659927368164,-72.46120452880859,-50.34093856811523
375,811967670,115.22412872314453,85.19927215576172,-52.42299270629883,-4.13748836517334,11.36057949066162,6.95312500000000,45.74274826049805,-73.51099395751953,-48.85463714599609
376,811976003,110.22773742675781,85.80436706542969,-57.79545593261719,-4.14189529418945,11.06535339355469,6.87453651428223,42.53839492797852,-73.57554626464844,-48.96320343017578
377,811984336,102.73831176757812,86.32453918457031,-65.62899017333984,-4.25332212448120,10.95409774780273,7.36569356918335,39.15637588500977,-75.61068725585938,-48.19966888427734
378,811992669,93.22139739990234,86.79613494873047,-75.46172332763672,-4.25098943710327,10.30529022216797,7.39651489257812,35.29532623291016,-76.78321075439453,-47.53599548339844
379,812001002,80.30107879638672,87.08080291748047,-88.67135620117188,-4.64959239959717,9.26481533050537,8.23063278198242,32.36815261840820,-78.40372467041016,-45.61662292480469
380,812009335,65.34400177001953,87.22978210449219,-103.90605926513672,-5.03325748443604,8.17361354827881,7.83269596099854,30.40255546569824,-80.12689971923828,-45.25520706176758
381,812017668,50.38145828247070,87.11120605468750,-119.15547943115234,-5.06075763702393,7.93272066116333,8.19392490386963,31.92361068725586,-79.55596160888672,-42.91462707519531
382,812026001,37.49045181274414,86.84297180175781,-132.36303710937500,-5.02143669128418,7.54922914505005,8.39571857452393,35.17854309082031,-79.83912658691406,-39.44630432128906
383,812034334,28.09785652160645,86.38269805908203,-142.08895874023438,-4.78272962570190,6.83304262161255,7.74713993072510,37.36736297607422,-79.10102081298828,-35.02988052368164
384,812042667,21.33504867553711,85.88443756103516,-149.24298095703125,-4.61208343505859,6.10861968994141,7.45880842208862,44.41650390625000,-77.38486480712891,-29.15564727783203
385,812051000,16.92727470397949,85.31663513183594,-154.09126281738281,-4.14165830612183,5.87870502471924,7.10229110717773,50.32147216796875,-74.34674835205078,-26.67042732238770
386,812059333,13.56690883636475,84.80200958251953,-157.95085144042969,-3.84771037101746,5.90632820129395,7.36963939666748,57.54375839233398,-68.95556640625000,-23.82002449035645
387,812067666,11.26776981353760,84.32846832275391,-160.81118774414062,-3.59504032135010,5.94825792312622,8.36336898803711,65.16921997070312,-61.40662384033203,-21.11239433288574
388,812075999,9.98344421386719,83.87234497070312,-162.73356628417969,-3.92377614974976,5.89153003692627,10.34226799011230,74.27582550048828,-53.58028030395508,-19.93049812316895
389,812084332,9.03629302978516,83.43308258056641,-164.40596008300781,-4.75279474258423,5.12612056732178,11.80155277252197,84.54222106933594,-50.75977706909180,-19.77593803405762
390,812092665,7.75820541381836,83.05256652832031,-166.50421142578125,-5.38430452346802,4.40068769454956,12.14216327667236,96.03671264648438,-48.42983245849609,-24.20022010803223
391,812100998,6.29989433288574,82.70486450195312,-168.86334228515625,-6.61309480667114,3.70787262916565,11.30167198181152,105.28438568115234,-44.64179229736328,-31.29863929748535
392,812109331,4.69450998306274,82.35379028320312,-171.42553710937500,-7.35546207427979,3.56363654136658,9.81571292877197,110.58918762207031,-40.56867599487305,-42.22883987426758
393,812117664,2.63846969604492,82.06036376953125,-174.50566101074219,-7.65037155151367,3.74837708473206,9.26822566986084,117.66101837158203,-32.88680267333984,-53.96718597412109
394,812125997,-0.40401953458786,81.85828399658203,-178.58171081542969,-7.30835533142090,5.19578838348389,8.72534942626953,118.58425903320312,-24.48766899108887,-69.47401428222656
395,812134330,-4.02146768569946,81.68187713623047,176.75708007812500,-7.13715219497681,6.73036861419678,8.71704387664795,118.86049652099609,-16.97349929809570,-82.37358093261719
396,812142663,-7.44574832916260,81.38292694091797,172.15757751464844,-8.44434165954590,7.16273736953735,8.49281787872314,132.91464233398438,-22.23417091369629,-90.55583953857422
397,812150996,-10.32540512084961,80.91156768798828,167.91093444824219,-9.23243427276611,7.82903766632080,8.62881755828857,155.75636291503906,-38.45879745483398,-92.30487823486328
398,812159329,-12.47325897216797,80.29127502441406,164.25009155273438,-9.09680175781250,7.93307924270630,8.68304538726807,175.02474975585938,-57.69025039672852,-86.57052612304688
399,812167662,-13.60041809082031,79.51859283447266,161.49827575683594,-8.30980682373047,7.12708044052124,7.38978052139282,189.21574401855469,-76.18057250976562,-78.85713958740234
400,812175995,-13.98273754119873,78.64997100830078,159.45596313476562,-7.80688762664795,6.37975311279297,5.06786155700684,192.24382019042969,-85.24881744384766,-76.20333862304688
401,812184328,-14.85133266448975,77.83320617675781,157.09909057617188,-7.60557937622070,4.10257053375244,0.52618253231049,170.06680297851562,-75.92007446289062,-86.43873596191406
402,812192661,-16.14815139770508,77.07069396972656,154.26535034179688,-8.20233440399170,1.18647933006287,-3.07711410522461,175.67434692382812,-67.32820129394531,-97.17627716064453
403,812200994,-17.13014793395996,76.24910736083984,151.58540344238281,-10.06987476348877,1.04398560523987,-1.50326132774353,194.44918823242188,-72.11364746093750,-100.86787414550781
404,812209327,-17.50865554809570,75.24807739257812,149.55987548828125,-12.67435359954834,1.49076092243195,-2.22532868385315,187.61190795898438,-93.28708648681641,-98.93047332763672
405,812217660,-17.37148666381836,74.10500335693359,148.05838012695312,-14.74268341064453,1.22532439231873,-2.42454934120178,189.60034179687500,-115.50632476806641,-88.08423614501953
406,812225993,-16.54296493530273,72.89994812011719,146.92367553710938,-11.54612541198730,-1.21039772033691,-2.98056769371033,227.61524963378906,-124.39386749267578,-84.90165710449219
407,812234326,-15.88700675964355,71.52095031738281,145.53503417968750,-7.77254915237427,-5.47210788726807,-5.32440710067749,236.74534606933594,-143.60108947753906,-96.64347076416016
408,812242659,-15.25376605987549,70.25121307373047,143.77749633789062,-3.42093443870544,-7.91282272338867,-4.49206256866455,273.12103271484375,-126.54417419433594,-112.79479217529297
409,812250992,-14.26197433471680,68.99224090576172,141.84072875976562,-3.58463191986084,-7.33095169067383,-7.55467844009399,335.20910644531250,-124.46649932861328,-121.37743377685547
410,812259325,-12.83781814575195,67.75587463378906,139.84091186523438,-4.89627838134766,-3.90640926361084,-7.07099437713623,393.35070800781250,-122.43296051025391,-122.28762817382812
411,812267658,-10.94909000396729,66.56919860839844,137.83056640625000,-5.86961793899536,-0.90174949169159,-6.86205911636353,448.34381103515625,-118.96881103515625,-122.52439117431641
412,812275991,-8.59577560424805,65.45014190673828,135.94374084472656,-7.01724815368652,1.25817906856537,-6.37849712371826,488.01074218750000,-116.82559204101562,-117.41642761230469
413,812284324,-5.90268993377686,64.36029815673828,134.15434265136719,-8.02412414550781,4.05632925033569,-7.03343772888184,516.76123046875000,-119.02048492431641,-110.45993804931641
414,812292657,-2.86553335189819,63.27135467529297,132.56282043457031,-7.00060224533081,8.19512367248535,-8.69965362548828,535.21020507812500,-122.79452514648438,-95.57189941406250
415,812300990,0.60659950971603,62.14133453369141,131.38298034667969,-4.58340978622437,12.85527610778809,-9.46267414093018,541.83636474609375,-133.24694824218750,-69.13643646240234
416,812309323,4.25268697738647,61.04715347290039,130.40084838867188,-2.05478429794312,16.16505813598633,-8.93557739257812,540.45965576171875,-135.32714843750000,-53.63739013671875
417,812317656,7.67318248748779,60.00806045532227,129.40548706054688,-1.22277045249939,15.37796974182129,-7.42417955398560,513.37524414062500,-132.34446716308594,-48.96623611450195
418,812325989,10.82765769958496,59.05195999145508,128.31138610839844,-0.03898617625237,12.30352497100830,-10.16606330871582,491.06771850585938,-122.88922882080078,-48.80403137207031
419,812334322,13.94444847106934,58.13233566284180,127.23637390136719,-2.91009664535522,8.44443511962891,-11.45885372161865,483.48275756835938,-121.15096282958984,-43.53115463256836
420,812342655,17.09087944030762,57.12039184570312,126.32642364501953,-6.30682849884033,4.62008905410767,-13.59972190856934,468.27056884765625,-135.36563110351562,-26.98106765747070
421,812350988,20.41734313964844,55.99409866333008,125.48078155517578,-7.05987882614136,2.33576917648315,-15.98372173309326,482.28594970703125,-149.23924255371094,-12.41770172119141
422,812359321,24.39970588684082,54.57860946655273,125.05300903320312,-16.00360870361328,10.59493350982666,-18.04608726501465,519.44158935546875,-167.14242553710938,36.21963119506836
423,812367654,28.39092826843262,52.71370697021484,124.55278778076172,-31.08450698852539,16.53748512268066,-18.64787673950195,526.62908935546875,-215.25454711914062,66.10619354248047
424,812375987,32.51760101318359,50.77047729492188,124.10840606689453,-44.68081665039062,17.96044921875000,-27.74263954162598,535.31323242187500,-222.07238769531250,88.02175903320312
425,812384320,36.40299606323242,48.48390197753906,123.31727600097656,-50.98255920410156,25.33101081848145,-25.63259887695312,536.28662109375000,-267.21176147460938,103.43674468994141
426,812392653,40.24380874633789,45.51943588256836,122.54582214355469,-59.89546585083008,42.55347442626953,-16.89695358276367,527.89978027343750,-317.24261474609375,169.59007263183594
427,812400986,43.58802413940430,42.75662231445312,121.11130523681641,-43.55611419677734,26.76492118835449,-17.00593185424805,520.49041748046875,-328.23629760742188,128.04316711425781
428,812409319,47.20698165893555,40.92898941040039,119.15198516845703,-28.77307891845703,-1.77855730056763,-27.19007873535156,587.48278808593750,-286.42678833007812,34.16162490844727
429,812417652,51.33306503295898,39.31631851196289,117.02361297607422,-33.79908752441406,-7.22711086273193,-30.69464302062988,655.76757812500000,-282.95803833007812,21.63199996948242
430,812425985,55.51863479614258,37.54334259033203,114.65312957763672,-29.85006523132324,-5.03089189529419,-32.11051940917969,678.40753173828125,-304.76538085937500,36.57452392578125
431,812434318,60.18767547607422,35.96935272216797,112.81459045410156,-21.49297714233398,0.30475497245789,-36.49784851074219,691.64367675781250,-249.19010925292969,64.37007904052734
432,812442651,65.54249572753906,34.48465347290039,111.64503479003906,-13.79230785369873,10.27925395965576,-34.38592529296875,720.01220703125000,-191.40443420410156,113.03681945800781
433,812450984,71.21967315673828,32.97716140747070,110.65381622314453,-5.04157209396362,11.25702476501465,-34.05889892578125,742.37408447265625,-166.23315429687500,139.43092346191406
434,812459317,77.17733764648438,31.47422218322754,109.53922271728516,-0.75172626972198,4.22068071365356,-33.60228347778320,785.60736083984375,-156.99075317382812,141.32254028320312
435,812467650,83.30824279785156,30.02718925476074,108.27944946289062,-3.87694215774536,4.89921188354492,-39.20766830444336,812.35504150390625,-156.48495483398438,147.69985961914062
436,812475983,89.22563171386719,28.60872650146484,106.73182678222656,-8.06074523925781,7.74023628234863,-44.81717681884766,794.37066650390625,-176.40151977539062,168.65963745117188
437,812484316,95.34004211425781,27.12194633483887,104.93637847900391,-7.75832748413086,11.23264408111572,-40.61802291870117,825.49353027343750,-185.71563720703125,194.85075378417969
438,812492649,101.17040252685547,25.67034339904785,102.21009063720703,-2.96535587310791,15.79914093017578,-31.58199501037598,844.36505126953125,-264.09207153320312,213.10658264160156
439,812500982,106.60482025146484,24.57707405090332,98.57912445068359,7.72384977340698,16.67529296875000,-28.37595367431641,836.34454345703125,-350.62854003906250,220.65640258789062
440,812509315,112.28381347656250,23.86688995361328,95.05276489257812,16.82791519165039,8.52834320068359,-34.70000076293945,845.29205322265625,-333.56842041015625,218.09989929199219
441,812517648,118.15042877197266,23.12573051452637,91.65609741210938,18.46354103088379,3.95752763748169,-29.91584777832031,855.50183105468750,-297.39715576171875,247.06491088867188
442,812525981,124.00418853759766,22.60566520690918,87.74433898925781,14.88462638854980,-2.95518565177917,-26.44940567016602,884.02209472656250,-337.38531494140625,275.43554687500000
443,812534314,130.28384399414062,22.35194015502930,83.84693145751953,13.63508796691895,-1.19645619392395,-21.73862266540527,920.77868652343750,-321.25384521484375,290.85748291015625
444,812542647,136.57298278808594,22.20156860351562,79.95880126953125,17.14332008361816,-0.43186378479004,-34.19763183593750,930.71893310546875,-300.28720092773438,308.69717407226562
445,812550980,143.26696777343750,22.04412460327148,76.32917785644531,19.56116294860840,1.17926359176636,-43.78812408447266,955.48132324218750,-239.09582519531250,324.68060302734375
446,812559313,149.85768127441406,21.94294929504395,72.75571441650391,17.76107597351074,4.61257171630859,-43.52766036987305,950.65008544921875,-208.03201293945312,337.31497192382812
447,812567646,156.41639709472656,21.96591949462891,69.30641937255859,16.98278045654297,6.61951971054077,-39.28025817871094,929.32220458984375,-169.36900329589844,342.64874267578125
448,812575979,162.61476135253906,22.07955360412598,65.86688995361328,16.75649070739746,4.29280662536621,-40.02534866333008,897.76092529296875,-145.66877746582031,352.47177124023438
449,812584312,168.69935607910156,22.43729019165039,62.35348892211914,17.79903030395508,1.69809818267822,-42.20938491821289,877.85437011718750,-132.11959838867188,367.09902954101562
450,812592645,174.66418457031250,23.02101707458496,58.77394104003906,19.31463432312012,0.98704051971436,-41.55851745605469,880.91491699218750,-125.58133697509766,380.70986938476562
451,812600978,-179.15869140625000,23.93055534362793,55.27888107299805,21.39216995239258,1.86596512794495,-42.22122955322266,897.08905029296875,-119.06008911132812,378.79483032226562
452,812609311,-172.89540100097656,25.04280090332031,52.01680374145508,22.69624900817871,4.07552146911621,-43.52474975585938,913.02368164062500,-107.39677429199219,363.46023559570312
453,812617644,-166.37585449218750,26.33194923400879,49.04807662963867,22.85905265808105,6.42852687835693,-45.92359161376953,927.26214599609375,-90.97557830810547,342.29510498046875
454,812625977,-159.66537475585938,27.78491210937500,46.30475616455078,21.70079994201660,6.31264114379883,-48.87075042724609,954.21337890625000,-80.05872344970703,330.11920166015625
455,812634310,-152.47448730468750,29.46956443786621,43.70248794555664,21.52545928955078,5.96558094024658,-52.22695922851562,1005.66766357421875,-72.08279418945312,331.96606445312500
456,812642643,-144.88090515136719,31.45973587036133,41.11109161376953,21.31435966491699,7.80493831634521,-55.18494415283203,1068.06628417968750,-63.58437728881836,352.01898193359375
457,812650976,-136.82569885253906,34.02924346923828,38.55397415161133,20.33745193481445,11.38013839721680,-57.41325378417969,1129.24548339843750,-76.37059020996094,396.06539916992188
458,812659309,-128.20228576660156,37.42638397216797,36.32498168945312,21.44124603271484,14.45833396911621,-58.36793136596680,1190.01306152343750,-114.40191650390625,446.31591796875000
459,812667642,-118.72509765625000,41.16234588623047,34.91209411621094,15.50899028778076,15.79522609710693,-59.77869415283203,1245.70349121093750,-139.24978637695312,449.92401123046875
460,812675975,-108.48415374755859,44.76421356201172,34.51621627807617,11.18229007720947,21.02898597717285,-58.74828338623047,1260.28100585937500,-140.30610656738281,409.10983276367188
461,812684308,-97.94140625000000,47.89978408813477,34.92124938964844,15.66650199890137,23.61034584045410,-54.91131973266602,1235.67395019531250,-120.95275878906250,363.51550292968750
462,812692641,-87.20673370361328,50.71056365966797,35.96294403076172,19.17712974548340,23.23862457275391,-52.51827621459961,1192.50268554687500,-95.60378265380859,332.25137329101562
463,812700974,-76.33527374267578,53.21390914916992,37.60081100463867,20.21433067321777,21.66160774230957,-50.63434982299805,1158.74914550781250,-79.67082214355469,320.22433471679688
464,812709307,-64.87088775634766,55.52804946899414,40.03674316406250,19.33429908752441,21.05887985229492,-49.67874145507812,1137.27038574218750,-67.39820861816406,317.35382080078125
465,812717640,-52.88557815551758,57.50960540771484,43.26516342163086,18.22012519836426,21.02220535278320,-48.92067718505859,1125.47033691406250,-63.38952636718750,320.12286376953125
466,812725973,-39.86959838867188,59.13312149047852,47.66411209106445,18.51133537292480,21.58540534973145,-48.58514785766602,1111.78686523437500,-65.31004333496094,331.08703613281250
467,812734306,-26.25079154968262,60.16911697387695,52.98665618896484,18.95149421691895,21.59100151062012,-47.19123840332031,1093.31274414062500,-75.67962646484375,344.44717407226562
468,812742639,-11.89087104797363,60.46841049194336,59.11203765869141,19.96513557434082,20.26346588134766,-46.52285385131836,1083.61120605468750,-83.98163604736328,354.52978515625000
469,812750972,2.38435363769531,60.10147094726562,65.25675201416016,21.19066047668457,18.90648269653320,-47.39267730712891,1081.12414550781250,-78.26393890380859,366.70141601562500
470,812759305,16.59761619567871,59.03059387207031,71.26727294921875,21.12075996398926,18.18903923034668,-48.34766769409180,1082.68713378906250,-65.34271240234375,380.36135864257812
471,812767638,30.24746322631836,57.34611892700195,76.66158294677734,21.25531959533691,17.08422470092773,-49.15460205078125,1093.47729492187500,-53.95260620117188,399.49716186523438
472,812775971,43.35610580444336,54.82025146484375,81.25235748291016,19.72598457336426,15.69819641113281,-49.41984558105469,1114.76525878906250,-57.37650680541992,426.59799194335938
473,812784304,55.37563705444336,51.58228683471680,84.49015045166016,18.19120597839355,14.50374221801758,-49.77748107910156,1132.89916992187500,-80.32466125488281,452.46105957031250
474,812792637,66.21027374267578,47.69100570678711,86.18850708007812,17.31940841674805,13.34875679016113,-50.12236404418945,1143.73779296875000,-111.65215301513672,471.09597778320312
475,812800970,75.95761108398438,43.55685806274414,86.37408447265625,17.88847732543945,11.81433677673340,-50.33315277099609,1151.15246582031250,-149.22523498535156,480.23666381835938
476,812809303,84.84622955322266,39.37919235229492,85.31984710693359,19.34946060180664,11.28565597534180,-50.58476257324219,1149.36999511718750,-176.19335937500000,477.61950683593750
477,812817636,93.17761993408203,35.52080535888672,83.35690307617188,20.12760162353516,10.79208755493164,-51.31519317626953,1136.20532226562500,-196.56683349609375,464.85375976562500
478,812825969,101.05899047851562,32.03550338745117,80.69699859619141,21.16497802734375,11.34888267517090,-52.58652496337891,1122.26928710937500,-210.62522888183594,446.89489746093750
479,812834302,108.87767791748047,29.09155273437500,77.64305114746094,22.28239059448242,12.38358688354492,-53.83985900878906,1113.95080566406250,-213.48860168457031,426.67947387695312
480,812842635,116.59738159179688,26.62596893310547,74.39971160888672,23.16729545593262,14.41706848144531,-53.86111068725586,1107.32507324218750,-202.16870117187500,404.82202148437500
481,812850968,124.34434509277344,24.67255210876465,71.13654327392578,22.74978065490723,16.06461906433105,-52.59519958496094,1085.34680175781250,-183.89024353027344,383.28549194335938
482,812859301,131.78683471679688,23.13811492919922,67.84509277343750,21.51762008666992,17.88658142089844,-50.93513870239258,1052.29528808593750,-169.86181640625000,366.50476074218750
483,812867634,139.13008117675781,22.05451393127441,64.52262878417969,20.22061157226562,19.66536331176758,-48.83075332641602,1018.73083496093750,-163.26553344726562,353.98846435546875
484,812875967,146.12037658691406,21.38787078857422,61.17986297607422,18.60640716552734,21.23601531982422,-45.54207611083984,986.46160888671875,-161.68356323242188,343.55429077148438
485,812884300,152.88972473144531,21.14484024047852,57.85328674316406,16.65382194519043,21.39259529113770,-41.83808898925781,956.31903076171875,-162.69084167480469,334.18746948242188
486,812892633,159.69763183593750,21.38776397705078,52.73661804199219,15.13456726074219,20.70885848999023,-38.55214691162109,923.86016845703125,-166.42686462402344,322.58984375000000
487,812900966,166.08361816406250,22.02516365051270,49.63365173339844,14.11100482940674,19.49565696716309,-35.39122390747070,890.40844726562500,-173.36077880859375,308.25607299804688
488,812909299,172.14938354492188,23.10093688964844,46.67039489746094,13.72978401184082,17.63479042053223,-32.96505355834961,863.52331542968750,-187.71897888183594,296.84524536132812
489,812917632,178.03659057617188,24.53782653808594,43.91947555541992,14.56688594818115,16.67688369750977,-30.50410079956055,839.00561523437500,-196.57820129394531,284.87887573242188
490,812925965,-176.18409729003906,26.27155494689941,41.44988632202148,15.15849971771240,15.93624877929688,-28.48823547363281,809.18609619140625,-202.10517883300781,271.55087280273438
491,812934298,-170.67082214355469,28.23274803161621,39.24301910400391,15.42709827423096,15.66463088989258,-26.91750335693359,773.78070068359375,-206.70989990234375,261.61279296875000
492,812942631,-165.54748535156250,30.40469741821289,37.24475479125977,15.62110996246338,16.45958709716797,-25.27768707275391,731.44561767578125,-210.88603210449219,256.96603393554688
493,812950964,-160.72261047363281,32.76340866088867,35.45576858520508,15.25374412536621,16.97253227233887,-23.08773803710938,690.66632080078125,-216.73873901367188,255.79273986816406
494,812959297,-156.10870361328125,35.20649719238281,33.91018295288086,14.08800029754639,16.53421592712402,-20.68962860107422,650.92602539062500,-216.27308654785156,252.65187072753906
495,812967630,-151.76524353027344,37.69968795776367,32.56242370605469,12.72852993011475,16.18333435058594,-18.38737678527832,613.46429443359375,-213.14147949218750,250.43293762207031
496,812975963,-147.65957641601562,40.29556655883789,31.43444252014160,10.99429225921631,16.11901283264160,-15.60042953491211,577.10858154296875,-214.83750915527344,246.55639648437500
497,812984296,-143.64338684082031,42.97256469726562,30.61476516723633,8.95108127593994,15.46050548553467,-12.78217601776123,546.54333496093750,-222.64976501464844,240.55850219726562
498,812992629,-139.63380432128906,45.64925384521484,30.21282386779785,7.21211242675781,13.83680725097656,-10.82620429992676,513.21984863281250,-232.19476318359375,229.15023803710938
499,813000962,-135.56207275390625,48.30778503417969,30.24313545227051,6.09646368026733,11.25752258300781,-9.93888664245605,485.87561035156250,-239.60823059082031,215.79190063476562
500,813009295,-131.25755310058594,50.90095901489258,30.67437934875488,7.12699699401855,9.30121421813965,-11.34421539306641,476.38104248046875,-237.12040710449219,201.58842468261719
501,813017628,-126.71991729736328,53.21665573120117,31.01199340820312,11.18414020538330,14.20973968505859,-11.27968311309814,511.82705688476562,-193.10127258300781,198.90531921386719
502,813025961,-123.22383880615234,55.54422378540039,30.85740089416504,3.31912159919739,18.72072982788086,-7.72266244888306,435.68182373046875,-153.55943298339844,237.76512145996094
503,813034294,-118.38174438476562,58.90861511230469,31.65911865234375,-19.99864578247070,19.36039924621582,-0.69186842441559,502.08267211914062,-254.33534240722656,322.22219848632812
504,813042627,-111.07482910156250,63.66981506347656,34.12862014770508,-50.61845016479492,31.22669029235840,8.89501857757568,615.66436767578125,-367.27929687500000,457.97671508789062
505,813050960,-101.56437683105469,69.19483184814453,40.66000366210938,-119.50473785400391,81.54788208007812,18.39866256713867,420.84017944335938,-485.69192504882812,545.89550781250000
506,813059293,-82.21938323974609,71.49478912353516,61.21626663208008,-68.59394073486328,77.04200744628906,-8.64257907867432,-3.50551128387451,-836.11767578125000,243.34220886230469
507,813067626,-71.27050018310547,71.10258483886719,71.82933044433594,-7.38159132003784,-5.87444210052490,-25.85468482971191,106.26927185058594,-408.20635986328125,38.50248336791992
508,813075959,-61.40006256103516,70.24145507812500,80.30974578857422,-33.50899124145508,-15.09363651275635,-0.60203111171722,223.20675659179688,-348.50448608398438,39.22287368774414
509,813084292,-52.94182968139648,68.30288696289062,87.82563781738281,-28.31763267517090,-15.79740905761719,-4.01723289489746,170.48291015625000,-392.80819702148438,-23.58741378784180
510,813092625,-45.60643005371094,66.57971954345703,92.91004180908203,-29.91135597229004,-10.90794277191162,2.15372443199158,315.57211303710938,-314.51126098632812,-12.19530582427979
511,813100958,-39.28826141357422,65.02722167968750,97.41712951660156,-13.66168785095215,3.71139335632324,-8.29293155670166,263.95007324218750,-290.04489135742188,30.46571731567383
512,813109291,-32.97452163696289,63.67968368530273,101.95298004150391,-7.14977693557739,14.66196727752686,-7.11193037033081,266.19345092773438,-268.27130126953125,93.51498413085938
513,813117624,-26.51428222656250,62.31711578369141,106.57906341552734,-12.00035285949707,16.98352813720703,-1.91077542304993,279.81704711914062,-265.75900268554688,136.27909851074219
514,813125957,-20.59037017822266,60.89257812500000,110.86186218261719,-17.06191635131836,16.99213218688965,2.91423034667969,256.97323608398438,-258.66998291015625,148.44662475585938
515,813134290,-15.66849327087402,59.50753784179688,114.43362426757812,-18.67393684387207,17.40140151977539,2.22219705581665,215.95645141601562,-228.86695861816406,142.56359863281250
516,813142623,-11.77483844757080,58.04578781127930,117.25056457519531,-18.30431747436523,15.64243888854980,1.99723052978516,177.45201110839844,-210.78684997558594,127.18112945556641
517,813150956,-8.50198173522949,56.44854354858398,119.63818359375000,-17.78567695617676,11.89491748809814,0.62411481142044,151.06642150878906,-214.79196166992188,117.40283966064453
518,813159289,-5.60831212997437,55.24906539916992,121.54823303222656,-13.43632030487061,8.14765548706055,-0.37739804387093,153.19537353515625,-163.89941406250000,101.66741180419922
519,813167622,-3.26214766502380,54.16383743286133,122.86173248291016,-9.25907039642334,6.68134927749634,-1.47331476211548,148.12783813476562,-142.55421447753906,72.23574066162109
520,813175955,-0.75868552923203,52.68431472778320,123.92970275878906,-11.05690002441406,10.77227306365967,-4.23390626907349,196.81877136230469,-178.97183227539062,68.65505981445312
521,813184288,2.25242567062378,51.33105087280273,125.44508361816406,-14.56320190429688,13.70516204833984,-4.04812765121460,217.33534240722656,-159.77249145507812,112.60011291503906
522,813192621,3.62975215911865,49.92470932006836,126.29779815673828,-2.24344897270203,-1.03992307186127,-2.24090504646301,80.57010650634766,-171.49290466308594,65.75810241699219
523,813200954,4.43073701858521,48.57438659667969,126.64452362060547,1.90843486785889,-3.66202449798584,-7.22113656997681,58.87022781372070,-166.21540832519531,30.98242759704590
524,813209287,6.36498594284058,47.27983093261719,127.22080993652344,-6.65279340744019,7.21816492080688,0.68555366992950,180.11117553710938,-149.15830993652344,59.31424331665039
525,813217620,8.59797573089600,46.01144027709961,127.64810943603516,-9.77494525909424,14.07919025421143,7.39221858978271,230.00724792480469,-145.19190979003906,53.27820205688477
526,813225953,10.36329460144043,44.85560989379883,127.77906036376953,-7.26719951629639,11.09403705596924,-0.62280106544495,194.73529052734375,-141.60951232910156,27.48973846435547
527,813234286,11.67370700836182,43.73130035400391,127.69130706787109,-6.07075643539429,5.67782402038574,-4.70394039154053,158.11570739746094,-140.22650146484375,12.16394901275635
528,813242619,12.79208374023438,42.65121459960938,127.35942077636719,-4.83375930786133,5.89657974243164,-0.56695884466171,160.80693054199219,-131.67880249023438,-2.34819746017456
529,813250952,13.96217536926270,41.66316604614258,126.85932922363281,-7.41292905807495,8.11056232452393,0.65929090976715,180.03060913085938,-124.49906158447266,-17.29049491882324
530,813259285,15.16942310333252,40.80905151367188,126.26137542724609,-9.85158920288086,9.02120876312256,-1.68427896499634,185.53338623046875,-119.40039825439453,-31.66688156127930
531,813267618,16.44868659973145,39.98617553710938,125.60608673095703,-11.14673423767090,8.89722156524658,-2.15976428985596,197.72914123535156,-118.08185577392578,-35.69202041625977
532,813275951,17.71750068664551,39.11592102050781,124.79184722900391,-10.64896869659424,8.92886924743652,-2.12437701225281,213.82283020019531,-120.81338500976562,-42.76894760131836
533,813284284,19.09338760375977,38.28984451293945,123.87464904785156,-10.06004905700684,8.51540756225586,0.11151961982250,233.27079772949219,-120.03684997558594,-51.64093399047852
534,813292617,20.50784111022949,37.69184112548828,122.89569091796875,-11.11656570434570,5.09630107879639,-2.39997959136963,235.21726989746094,-106.30727386474609,-66.69033813476562
535,813300950,22.02486419677734,37.28777313232422,121.87467193603516,-12.12549877166748,1.91046869754791,-6.85468339920044,249.88981628417969,-88.17216491699219,-76.43434906005859
536,813309283,23.75229644775391,36.82785034179688,120.76226806640625,-13.37082576751709,2.49600338935852,-5.30084371566772,287.08502197265625,-91.13580322265625,-78.10491943359375
537,813317616,25.70290184020996,36.42987823486328,119.63124084472656,-13.65339183807373,5.70298385620117,-4.14768075942993,308.85949707031250,-97.56106567382812,-81.12133789062500
538,813325949,27.75553703308105,36.04880142211914,118.47679138183594,-13.07297897338867,8.95211982727051,-8.40057373046875,327.56494140625000,-89.95748901367188,-80.65915679931641
539,813334282,30.03384208679199,35.74119186401367,117.32618713378906,-13.62442398071289,10.76663970947266,-10.90639877319336,348.22399902343750,-95.66819763183594,-81.07252502441406
540,813342615,32.33813095092773,35.34796142578125,116.08811950683594,-12.74688625335693,9.67934608459473,-12.90503597259521,362.23699951171875,-101.82658386230469,-80.40741729736328
541,813350948,34.74760437011719,35.05280685424805,114.82867431640625,-12.50600528717041,9.82857990264893,-12.07178020477295,369.73822021484375,-107.79463195800781,-83.11416625976562
542,813359281,37.12784194946289,34.44778823852539,113.41986846923828,-12.77968406677246,8.84088611602783,-14.77867317199707,381.34436035156250,-139.17521667480469,-71.28255462646484
543,813367614,39.78274917602539,33.66335678100586,111.96504974365234,-11.31792163848877,7.84733152389526,-19.70820236206055,409.41207885742188,-174.21168518066406,-53.00061416625977
544,813375947,42.61418533325195,32.57884597778320,110.39305877685547,-10.97259902954102,5.81574153900146,-23.89569091796875,442.19335937500000,-200.87001037597656,-34.58080673217773
545,813384280,45.87570953369141,31.46266937255859,108.78471374511719,-9.31470012664795,4.84587335586548,-26.26036071777344,486.02130126953125,-221.10273742675781,-20.11968803405762
546,813392613,49.42617416381836,30.17847442626953,107.08918762207031,-8.57685756683350,6.20032405853271,-29.62514686584473,529.63305664062500,-231.85334777832031,-5.23250627517700
547,813400946,53.39415740966797,28.96670913696289,105.38394927978516,-8.99395370483398,7.38509225845337,-31.52225875854492,568.25097656250000,-240.70657348632812,8.57928085327148
548,813409279,57.51364898681641,27.65800857543945,103.49649810791016,-9.54913711547852,8.98827552795410,-31.66504287719727,601.08209228515625,-252.22497558593750,14.86639881134033
549,813417612,61.89084625244141,26.56844329833984,101.50881195068359,-9.78454399108887,10.89743041992188,-31.18702697753906,623.28771972656250,-259.42901611328125,14.15180206298828
550,813425945,66.26008605957031,25.47991943359375,99.27163696289062,-9.96646595001221,11.98650836944580,-31.18432235717773,641.40283203125000,-273.02191162109375,10.59654998779297
551,813434278,70.83222961425781,24.61343002319336,96.78638458251953,-7.57277536392212,9.09933567047119,-32.96469497680664,662.35870361328125,-298.18963623046875,8.71039295196533
552,813442611,75.45942687988281,23.67573356628418,93.92019653320312,-4.96799039840698,5.82201147079468,-35.22475051879883,695.21728515625000,-331.98556518554688,15.28165054321289
553,813450944,80.36864471435547,22.98529815673828,90.76182556152344,-3.38458418846130,4.70032930374146,-34.64209747314453,724.85961914062500,-364.12454223632812,21.21107101440430
554,813459277,85.32894134521484,22.40337371826172,87.36912536621094,-3.64179134368896,2.02345418930054,-32.52080535888672,751.52691650390625,-380.41198730468750,21.12714385986328
555,813467610,90.50434112548828,22.21820640563965,83.76676177978516,-4.76494455337524,2.46500635147095,-30.12664031982422,769.47711181640625,-403.94049072265625,22.76525115966797
556,813475943,95.55918121337891,22.18364143371582,79.78721618652344,-4.55214309692383,2.55142498016357,-30.20811271667480,786.18273925781250,-440.38433837890625,26.15010261535645
557,813484276,100.62320709228516,22.55266952514648,75.48442840576172,-1.37157487869263,4.46747016906738,-28.27014923095703,788.03424072265625,-478.89184570312500,40.21309661865234
558,813492609,105.48876190185547,23.02939605712891,71.31895446777344,6.04138088226318,3.90090131759644,-32.50790405273438,776.63250732421875,-460.92172241210938,47.03853988647461
559,813500942,110.33026885986328,23.99753952026367,67.35356903076172,10.56533241271973,4.14897918701172,-37.18315124511719,754.60223388671875,-447.32940673828125,40.76451492309570
560,813509275,115.08385467529297,25.01546859741211,63.74548721313477,16.02224922180176,10.12451839447021,-38.57806015014648,749.20361328125000,-409.61077880859375,38.06685256958008
561,813517608,120.31668090820312,26.26959037780762,60.53547668457031,13.73874950408936,14.62954139709473,-38.11809158325195,777.47253417968750,-371.50067138671875,43.75113677978516
562,813525941,124.96633148193359,27.54194831848145,57.52573776245117,14.52494907379150,14.08592605590820,-31.77895355224609,720.61047363281250,-352.53936767578125,43.81982803344727
563,813534274,129.63150024414062,28.97344398498535,54.88734436035156,16.90858268737793,16.90938568115234,-29.08415222167969,692.54986572265625,-318.86959838867188,45.71328735351562
564,813542607,134.00717163085938,30.21412086486816,52.45633316040039,13.95100212097168,20.78836441040039,-27.14361190795898,668.39556884765625,-287.24615478515625,56.84513092041016
565,813550940,138.26911926269531,31.54767036437988,50.19359588623047,9.61365795135498,20.61851310729980,-24.45233154296875,634.91296386718750,-269.68542480468750,67.89881896972656
566,813559273,142.16558837890625,32.84162521362305,48.05673980712891,7.44650888442993,16.97291946411133,-23.54826354980469,603.45697021484375,-257.07281494140625,66.04920196533203
567,813567606,146.05870056152344,34.31080627441406,46.15108489990234,6.58146619796753,16.01341819763184,-20.46140098571777,579.58001708984375,-247.54673767089844,59.64101409912109
568,813575939,149.73670959472656,35.77543258666992,44.38089370727539,5.11386156082153,15.05486679077148,-17.07203292846680,562.59875488281250,-240.18530273437500,52.55983352661133
569,813584272,153.51992797851562,37.35353088378906,42.94799041748047,4.89114761352539,11.83022594451904,-15.86817932128906,544.35729980468750,-225.69744873046875,38.39905929565430
570,813592605,157.19120788574219,38.86532211303711,41.72806549072266,4.70080137252808,9.20328903198242,-14.97618961334229,530.17382812500000,-211.78958129882812,27.67193031311035
571,813600938,161.01960754394531,40.41310882568359,40.79035568237305,4.76300764083862,7.52723264694214,-14.25974464416504,520.79162597656250,-198.46879577636719,20.17681694030762
572,813609271,164.77035522460938,41.85054016113281,40.05048370361328,4.84414243698120,5.53760433197021,-13.66476440429688,507.76770019531250,-183.38960266113281,11.79666996002197
573,813617604,168.67140197753906,43.25026702880859,39.58068466186523,4.25482130050659,3.78678512573242,-13.27368164062500,497.16018676757812,-167.85821533203125,6.24150133132935
574,813625937,172.52467346191406,44.51702880859375,39.23224258422852,3.05855917930603,3.52743744850159,-13.27421665191650,490.65664672851562,-153.74263000488281,3.51045465469360
575,813634270,176.57098388671875,45.76934432983398,39.15204238891602,1.09097421169281,0.79495334625244,-12.86775398254395,484.31881713867188,-145.91471862792969,-3.85654163360596
576,813642603,-179.37121582031250,46.97624588012695,39.05914306640625,-0.00577513873577,2.28989887237549,-11.97898006439209,494.28527832031250,-143.82005310058594,2.75965595245361
577,813650936,-175.43984985351562,47.95014572143555,38.86146926879883,-0.81800472736359,13.01184368133545,-14.36212444305420,482.03759765625000,-112.27315521240234,24.50411415100098
578,813659269,-171.81863403320312,48.68999481201172,38.24398422241211,-6.19554376602173,18.78714561462402,-12.64811325073242,489.17547607421875,-81.59717559814453,57.44123077392578
579,813667602,-168.54841613769531,49.45835494995117,37.25174713134766,-12.96604442596436,23.53895759582520,-8.80285358428955,477.55044555664062,-74.44283294677734,94.11997985839844
580,813675935,-165.42883300781250,50.36817932128906,36.09901809692383,-15.41695499420166,19.42589378356934,-8.42860317230225,479.46200561523438,-85.14686584472656,110.00153350830078
581,813684268,-162.25827026367188,51.41953277587891,35.09312820434570,-10.45527267456055,15.66996479034424,-10.65802860260010,471.85629272460938,-96.68836212158203,107.41464233398438
582,813692601,-159.13365173339844,52.56612014770508,34.07428359985352,-5.66977977752686,13.11187362670898,-11.98522090911865,470.56747436523438,-103.79959869384766,115.17089843750000
583,813700934,-156.11970520019531,53.83392715454102,32.97292709350586,-3.74000072479248,14.21101093292236,-11.96921157836914,467.03631591796875,-108.08585357666016,128.69163513183594
584,813709267,-153.20068359375000,55.13840103149414,31.88962173461914,-4.70533752441406,14.64491558074951,-11.89180660247803,455.37362670898438,-107.98524475097656,133.88043212890625
585,813717600,-150.35517883300781,56.43721008300781,30.87989997863770,-9.38473415374756,13.94987010955811,-12.28866767883301,442.84469604492188,-104.07872772216797,129.94125366210938
586,813725933,-147.31581115722656,57.70486831665039,30.21310997009277,-15.39471721649170,16.32410049438477,-9.75979328155518,431.16571044921875,-106.48887634277344,114.57229614257812
587,813734266,-144.12988281250000,59.09006500244141,29.87558937072754,-14.35022354125977,19.67835235595703,-9.28490161895752,416.08242797851562,-124.23632049560547,109.78479766845703
588,813742599,-141.10008239746094,60.45685195922852,29.66604614257812,-8.42910671234131,20.44418525695801,-8.48792362213135,387.67736816406250,-122.92404937744141,104.29988098144531
589,813750932,-138.43344116210938,61.82855987548828,29.29967498779297,-4.27863454818726,21.58041763305664,-5.28704071044922,362.08694458007812,-113.06552124023438,115.18942260742188
590,813759265,-135.84429931640625,63.21491622924805,28.98569488525391,-3.02629971504211,20.15920829772949,-4.07077169418335,343.40628051757812,-108.94608306884766,124.53553771972656
591,813767598,-133.44421386718750,64.69326782226562,28.66203880310059,-5.22168922424316,20.12572097778320,0.14365297555923,322.18170166015625,-111.35447692871094,136.83021545410156
592,813775931,-131.12710571289062,66.23684692382812,28.46201133728027,-5.75687885284424,14.89869022369385,-0.93393278121948,303.89303588867188,-119.94058227539062,134.85705566406250
593,813784264,-128.67413330078125,67.80511474609375,28.45139312744141,-4.43143367767334,15.20264625549316,0.97669970989227,299.55828857421875,-123.16399383544922,134.38900756835938
594,813792597,-125.73744201660156,69.36374664306641,29.00832176208496,-4.55264043807983,14.01637268066406,2.65800952911377,289.45758056640625,-131.36137390136719,132.84350585937500
595,813800930,-122.59389495849609,70.92909240722656,29.83601570129395,-4.92155933380127,13.34904670715332,5.22414541244507,283.07226562500000,-132.22505187988281,135.10029602050781
596,813809263,-119.39888000488281,72.54434967041016,30.79892921447754,-8.03259372711182,10.11995887756348,7.39012193679810,276.80899047851562,-134.49836730957031,136.36503601074219
597,813817596,-115.85784912109375,73.92877960205078,32.25212860107422,-9.87003517150879,4.55856609344482,4.62299680709839,260.32772827148438,-124.45178222656250,111.92122650146484
598,813825929,-111.89053344726562,74.93654632568359,34.19622421264648,-8.30066680908203,5.33511877059937,0.40097850561142,250.62188720703125,-105.01328277587891,83.85600280761719
599,813834262,-107.69419097900391,75.75167846679688,36.49345397949219,-7.28712844848633,11.91003227233887,-0.38153943419456,236.14263916015625,-97.56388854980469,67.02732086181641
600,813842595,-103.25507354736328,76.58453369140625,39.22200775146484,-8.21071720123291,17.92187690734863,3.48148298263550,216.16638183593750,-105.36752319335938,63.67004013061523
601,813850928,-97.93685150146484,77.40592193603516,43.11177062988281,-9.90472888946533,18.62136268615723,5.09306287765503,184.26745605468750,-124.35646057128906,64.63025665283203
602,813859261,-91.69163513183594,78.06299591064453,48.14402389526367,-10.55659961700439,16.48495674133301,5.88062810897827,158.60539245605469,-133.23252868652344,66.36065673828125
603,813867594,-85.09423065185547,78.53437805175781,53.77082443237305,-9.46775817871094,12.69930267333984,4.58858537673950,129.76889038085938,-134.07083129882812,58.93872833251953
604,813875927,-78.82460784912109,78.88916778564453,59.31998062133789,-7.87925767898560,9.35833740234375,3.41045737266541,98.83873748779297,-125.76956176757812,46.06102371215820
605,813884260,-72.88756561279297,79.05741882324219,64.71876525878906,-6.98145341873169,6.73508977890015,2.51401805877686,75.46868133544922,-117.23448944091797,34.95103836059570
606,813892593,-67.21060943603516,78.94380187988281,69.89623260498047,-6.81816482543945,5.09099197387695,2.02675938606262,70.63186645507812,-114.85437011718750,26.26648712158203
607,813900926,-61.78033828735352,78.69226837158203,74.79167938232422,-7.25664043426514,4.11824131011963,1.85513806343079,74.59898376464844,-114.59971618652344,20.44103050231934
608,813909259,-56.29772567749023,78.44096374511719,79.69084167480469,-7.72939109802246,3.45798563957214,1.64633715152740,79.71141815185547,-117.36658477783203,19.43060302734375
609,813917592,-50.85935974121094,78.10312652587891,84.49344635009766,-7.94750452041626,3.49084472656250,2.25970578193665,86.00881958007812,-120.04053497314453,22.59869194030762
610,813925925,-45.76830291748047,77.58283996582031,88.92187500000000,-8.46995925903320,4.16077566146851,4.29615211486816,90.70992279052734,-123.86238098144531,26.45125007629395
611,813934258,-40.64795303344727,76.94826507568359,93.34406280517578,-9.54372692108154,4.79433822631836,5.23033332824707,96.09973144531250,-134.35131835937500,31.77239418029785
612,813942591,-35.29259490966797,76.26499938964844,97.97446441650391,-9.96418190002441,5.91525936126709,6.73948812484741,98.89601135253906,-145.47885131835938,37.16391754150391
613,813950924,-30.22527503967285,75.42710113525391,102.32555389404297,-10.16623020172119,6.22043752670288,7.16334295272827,98.03953552246094,-154.66970825195312,39.19043731689453
614,813959257,-26.08241844177246,74.41030883789062,105.82076263427734,-9.67931461334229,5.52661657333374,5.98612594604492,91.42546844482422,-157.82846069335938,37.29665374755859
615,813967590,-22.71639251708984,73.38785552978516,108.62013244628906,-8.42461967468262,4.58199644088745,4.03039121627808,80.43537902832031,-149.01264953613281,32.79516220092773
616,813975923,-19.65704154968262,72.45967102050781,111.15422058105469,-7.67173957824707,3.44431686401367,2.05786776542664,71.57583618164062,-136.82723999023438,29.47013473510742
617,813984256,-16.91843795776367,71.53600311279297,113.35498809814453,-8.15808868408203,2.11570906639099,1.08143520355225,72.39071655273438,-131.41172790527344,29.46364974975586
618,813992589,-14.59519100189209,70.54486846923828,115.07580566406250,-8.88467407226562,1.38542473316193,0.90768456459045,82.76348876953125,-131.48916625976562,30.91313171386719
619,814000922,-12.19893074035645,69.50742340087891,116.73239135742188,-9.37828254699707,2.19128060340881,1.61209928989410,99.99324798583984,-135.64521789550781,35.84715270996094
620,814009255,-9.47372913360596,68.42300415039062,118.62438964843750,-10.16084194183350,3.45422720909119,3.45726537704468,109.51595306396484,-144.16456604003906,43.12891387939453
621,814017588,-6.79984951019287,67.18672943115234,120.46830749511719,-11.13199996948242,4.29460811614990,5.20153427124023,110.26785278320312,-159.84906005859375,49.71452331542969
622,814025921,-4.63079833984375,65.84108734130859,121.84123229980469,-10.84227848052979,4.00354290008545,4.64933443069458,108.44413757324219,-166.01690673828125,47.89306259155273
623,814034254,-2.82387351989746,64.51770019531250,122.88793182373047,-9.91464233398438,3.29392218589783,3.39617943763733,102.09951782226562,-160.70948791503906,40.92835235595703
624,814042587,-1.16258096694946,63.27618408203125,123.80317687988281,-8.78304100036621,3.04860687255859,2.50643110275269,94.25511932373047,-151.87683105468750,31.66801834106445
625,814050920,0.23952716588974,62.11434936523438,124.44629669189453,-8.45242786407471,2.00782608985901,1.18799185752869,93.13228607177734,-141.13317871093750,23.21768379211426
626,814059253,1.21717715263367,61.01145935058594,124.69901275634766,-8.11400032043457,1.02867925167084,-0.46967303752899,89.92343902587891,-130.96153259277344,14.76331043243408
627,814067586,2.15733194351196,59.93883895874023,124.83902740478516,-7.97578287124634,0.52800559997559,-1.61765801906586,97.47592926025391,-127.23084259033203,10.70385360717773
628,814075919,3.37192726135254,58.89100646972656,125.11398315429688,-8.03614616394043,0.99617135524750,-1.91968452930450,110.56726074218750,-126.89556884765625,12.64694881439209
629,814084252,4.69986104965210,57.82123184204102,125.40837860107422,-8.80719375610352,2.00200319290161,-1.48135924339294,122.75157165527344,-129.58432006835938,17.96322250366211
630,814092585,6.01028585433960,56.65833282470703,125.64574432373047,-9.77292346954346,3.44141578674316,0.20832833647728,132.56958007812500,-136.31269836425781,27.01225280761719
631,814100918,7.40743064880371,55.37091064453125,125.92334747314453,-11.03438377380371,4.32438373565674,1.91901195049286,139.30917358398438,-150.06942749023438,35.18101501464844
632,814109251,8.91150569915771,53.96794891357422,126.20977783203125,-11.50824356079102,4.90960359573364,2.76886224746704,145.59991455078125,-167.57630920410156,34.88758468627930
633,814117584,10.34923839569092,52.45872879028320,126.37781524658203,-11.17707347869873,4.93364715576172,3.73477840423584,149.36761474609375,-180.71958923339844,33.83819198608398
634,814125917,11.59679031372070,50.83328628540039,126.39350128173828,-11.21261882781982,5.04337787628174,5.07874059677124,147.49819946289062,-190.07992553710938,36.91876602172852
635,814134250,12.99966335296631,49.12080001831055,126.48472595214844,-12.12649154663086,4.55194520950317,7.37869071960449,152.55117797851562,-203.81118774414062,42.91808319091797
636,814142583,14.17125225067139,47.39046096801758,126.34399414062500,-12.04285335540771,2.31037425994873,7.00304174423218,152.45834350585938,-203.28723144531250,36.48934555053711
637,814150916,15.32055854797363,45.84869003295898,126.13228607177734,-10.69663810729980,0.88750445842743,3.61520075798035,148.81985473632812,-188.07612609863281,23.36725616455078
638,814159249,16.19108390808105,44.45306396484375,125.72360992431641,-9.64933109283447,0.25617122650146,-0.88919740915298,138.50331115722656,-169.38374328613281,10.83501052856445
639,814167582,17.23050498962402,43.15343475341797,125.38618469238281,-10.08142471313477,0.69564229249954,-2.99665927886963,145.40136718750000,-163.20881652832031,11.08229923248291
640,814175915,18.34206390380859,41.76365661621094,125.04300689697266,-11.96933174133301,1.30594968795776,-2.52432990074158,160.46002197265625,-166.89497375488281,20.65905761718750
641,814184248,19.14669799804688,40.29952239990234,124.60189819335938,-12.13018512725830,1.49052178859711,-4.36065673828125,124.13317108154297,-185.83485412597656,13.93712902069092
642,814192581,19.77280044555664,38.51313018798828,123.91857910156250,-14.95912170410156,2.37639880180359,-2.83686733245850,126.45931243896484,-222.03898620605469,10.32160758972168
643,814200914,20.27736282348633,36.59470367431641,123.08338165283203,-18.52496528625488,2.33026552200317,-5.16912889480591,114.56407165527344,-251.53988647460938,0.63628756999969
644,814209247,21.07490158081055,34.75468444824219,121.95146179199219,-13.59267997741699,0.28315538167953,-4.96852111816406,174.19271850585938,-244.35215759277344,-26.63534736633301
645,814217580,22.27829170227051,33.26766967773438,120.79985046386719,-8.95282363891602,2.32835745811462,0.11445614695549,214.97030639648438,-217.96290588378906,-42.58092117309570
646,814225913,23.35974311828613,31.59947013854980,119.60308837890625,-11.53264331817627,2.87303137779236,-0.07688064873219,206.07188415527344,-230.33952331542969,-35.45053863525391
647,814234246,24.64508628845215,29.96383285522461,118.45648956298828,-13.14440917968750,2.23455476760864,-2.27492260932922,218.27336120605469,-237.72869873046875,-28.85820579528809
648,814242579,25.93444633483887,28.36584281921387,117.25835418701172,-12.73657798767090,1.91108226776123,-2.08034634590149,224.06433105468750,-225.83253479003906,-32.95445251464844
649,814250912,27.26337814331055,26.92905044555664,116.06207275390625,-13.45407867431641,-0.03758807480335,-6.10938310623169,220.13087463378906,-222.29397583007812,-35.68021392822266
650,814259245,28.78228378295898,25.45032691955566,114.83666992187500,-13.19047260284424,0.78542804718018,-6.55300855636597,246.44311523437500,-217.45646667480469,-34.46937179565430
651,814267578,30.57921218872070,24.11013412475586,113.63532257080078,-14.22715663909912,1.72452878952026,-3.90381598472595,270.59783935546875,-216.70967102050781,-31.51296997070312
652,814275911,32.53079986572266,22.72498703002930,112.38735198974609,-16.13643646240234,0.63023859262466,-4.54160594940186,292.98428344726562,-212.38180541992188,-31.47617912292480
653,814284244,34.78794860839844,21.49346160888672,111.14185333251953,-17.88278770446777,0.57861900329590,-4.61003828048706,322.19873046875000,-212.63496398925781,-28.73013305664062
654,814292577,37.21668243408203,20.19640922546387,109.82112121582031,-19.38900566101074,0.10282695293427,-5.30574083328247,347.12020874023438,-211.81385803222656,-29.68879127502441
655,814300910,39.92115402221680,19.13950729370117,108.46289825439453,-20.07113265991211,0.73009300231934,-6.68810081481934,375.20648193359375,-208.45549011230469,-33.77473449707031
656,814309243,42.79005050659180,17.97796058654785,107.02667236328125,-20.51875114440918,3.73287153244019,-7.43775415420532,398.39822387695312,-211.42147827148438,-31.90086936950684
657,814317576,45.78058242797852,16.93698120117188,105.53291320800781,-20.33887481689453,7.93145561218262,-8.17610931396484,408.83963012695312,-222.76725769042969,-25.16422653198242
658,814325909,48.70344543457031,15.74017143249512,103.92113494873047,-20.25669479370117,11.15491199493408,-8.94342422485352,404.42636108398438,-232.62471008300781,-21.91490936279297
659,814334242,51.68527221679688,14.74290370941162,102.21364593505859,-18.98362731933594,9.77210330963135,-11.05078697204590,407.42361450195312,-242.07545471191406,-21.84945869445801
660,814342575,54.73226165771484,13.56192111968994,100.46128845214844,-16.13609886169434,9.75297546386719,-12.28970336914062,416.32275390625000,-247.01573181152344,-9.97678089141846
661,814350908,57.83328247070312,12.50214099884033,98.66470336914062,-17.03425025939941,5.63425540924072,-12.97291088104248,415.79434204101562,-257.80099487304688,4.49095582962036
662,814359241,60.98290252685547,11.20096778869629,96.70636749267578,-19.08040809631348,-0.77869606018066,-18.08114624023438,425.47546386718750,-276.30670166015625,16.00923919677734
663,814367574,64.45529174804688,10.10876083374023,94.64600372314453,-21.85472679138184,0.44496518373489,-21.48224639892578,457.11560058593750,-286.96395874023438,23.22951698303223
664,814375907,68.10305023193359,8.88699531555176,92.32818603515625,-25.27178573608398,4.25094366073608,-21.28087043762207,482.86480712890625,-309.01473999023438,22.51582145690918
665,814384240,71.93302917480469,8.09304237365723,89.84162902832031,-25.17803573608398,4.42751979827881,-22.38166046142578,497.60934448242188,-318.67364501953125,10.31968021392822
666,814392573,76.17660522460938,7.33299875259399,87.31219482421875,-21.64041137695312,1.22047388553619,-28.23472595214844,549.19482421875000,-313.17724609375000,3.71569299697876
667,814400906,80.88756561279297,6.90718173980713,84.75717926025391,-19.86113357543945,7.34347629547119,-30.34695816040039,596.17321777343750,-313.57226562500000,14.51100730895996
668,814409239,85.65724945068359,6.34376525878906,81.94463348388672,-19.11987686157227,7.83154439926147,-33.24077606201172,610.50219726562500,-339.80023193359375,26.53350067138672
669,814417572,90.61299896240234,6.14135789871216,78.98467254638672,-16.51071739196777,13.17394351959229,-34.61539077758789,624.25274658203125,-354.04037475585938,39.88754272460938
