sep=,
DeviceTag:,Xsens DOT
FirmwareVersion:,2.1.0
AppVersion:,2022.0.0
StartTime: ,2022-08-15_19:21:10_000 EDT
© Xsens Technologies B. V. 2005-2022

PacketCounter,SampleTimeFine,Euler_X,Euler_Y,Euler_Z,Acc_X,Acc_Y,Acc_Z,Gyr_X,Gyr_Y,Gyr_Z
0,786214986,92.22356414794922,71.59870910644531,-53.96520614624023,0.00000000000000,0.00000000000000,0.00000000000000,0.00000000000000,0.00000000000000,0.00000000000000
1,786223319,91.82022094726562,71.86826324462891,-54.85858535766602,-10.93368148803711,2.47769236564636,-2.70682501792908,52.96881103515625,-34.51530075073242,-31.77645874023438
2,786231652,91.46646881103516,72.12261962890625,-55.83071899414062,-10.99845886230469,2.95485019683838,-2.42695021629333,68.03999328613281,-36.69910812377930,-30.11013793945312
3,786239985,102.50532531738281,73.11033630371094,-45.18207931518555,-11.45334720611572,2.01398348808289,-2.46503806114197,85.33708953857422,-44.62570190429688,-21.48664855957031
4,786248318,102.10617828369141,73.29822540283203,-46.54321670532227,-10.89253997802734,2.23302364349365,-2.92995929718018,108.03427124023438,-50.70423889160156,-12.59830379486084
5,786256651,112.56864166259766,73.86926269531250,-36.90449142456055,-11.32135105133057,4.05484056472778,-3.21896076202393,124.15423583984375,-53.00162887573242,0.56769728660583
6,786264984,119.96733093261719,73.50037384033203,-30.77675437927246,-11.10639381408691,5.16359281539917,-3.66488885879517,137.52227783203125,-61.03065872192383,12.04469490051270
7,786273317,119.17761993408203,73.63049316406250,-32.89525222778320,-9.75557994842529,5.97454738616943,-3.99825930595398,148.67193603515625,-70.08563995361328,21.29193878173828
8,786281650,122.60191345214844,72.07077026367188,-30.99465370178223,-8.02360534667969,6.76372098922729,-4.28971242904663,161.74504089355469,-77.75064086914062,26.17620086669922
9,786289983,121.85836029052734,72.21566772460938,-33.30279922485352,-6.57810068130493,7.77821540832520,-4.17155075073242,174.01004028320312,-80.94408416748047,29.95653724670410
10,786298316,121.03919219970703,72.34020233154297,-35.78329086303711,-5.81736230850220,9.01635932922363,-3.98034381866455,184.82537841796875,-84.90559387207031,33.89656448364258
11,786306649,122.54833221435547,69.97663879394531,-36.16101455688477,-5.38363695144653,8.64756965637207,-4.49360275268555,195.00544738769531,-91.74799346923828,32.15888595581055
12,786314982,122.76803588867188,67.17935943603516,-38.01400375366211,-5.36310768127441,8.18153381347656,-5.52457952499390,211.43778991699219,-97.79558563232422,32.24084472656250
13,786323315,122.56246948242188,67.41948699951172,-40.28257751464844,-6.29450082778931,8.32898902893066,-5.94811296463013,226.06324768066406,-103.81932830810547,31.79056167602539
14,786331648,122.36505126953125,67.71743774414062,-42.65148925781250,-7.14024496078491,7.43854427337646,-6.98622417449951,238.66479492187500,-110.53437042236328,27.42126655578613
15,786339981,123.49611663818359,65.09564208984375,-44.01491165161133,-8.25766658782959,8.15812492370605,-6.90552330017090,248.12094116210938,-115.57475280761719,26.90268516540527
16,786348314,124.98124694824219,62.86870956420898,-45.07285690307617,-8.97421932220459,6.59988451004028,-7.82354974746704,248.82037353515625,-121.55575561523438,18.77835083007812
17,786356647,125.26506805419922,63.38473510742188,-47.16142272949219,-9.27822875976562,6.63355731964111,-8.38811397552490,257.21502685546875,-128.12435913085938,13.85833740234375
18,786364980,125.48738098144531,63.98228836059570,-49.34524154663086,-9.85502147674561,6.86835908889771,-8.26406955718994,261.16989135742188,-136.06546020507812,8.14979171752930
19,786373313,127.73292541503906,62.48612976074219,-49.81918716430664,-10.04402732849121,5.92249679565430,-9.51474666595459,262.66345214843750,-143.77330017089844,-2.02415847778320
20,786381646,130.18515014648438,61.40737152099609,-50.13376617431641,-10.20161437988281,6.11764478683472,-10.64160823822021,268.04669189453125,-148.58934020996094,-9.87593841552734
21,786389979,130.90022277832031,62.32582473754883,-51.93394088745117,-9.32521724700928,5.75687122344971,-12.60474014282227,275.89682006835938,-148.90341186523438,-18.23624420166016
22,786398312,131.70520019531250,63.24998474121094,-53.76085662841797,-8.87511348724365,7.13552951812744,-13.01747989654541,291.15475463867188,-148.34703063964844,-17.80817031860352
23,786406645,134.97041320800781,62.48384857177734,-53.49895477294922,-8.85993576049805,7.35056161880493,-13.43279743194580,295.46322631835938,-154.00820922851562,-14.86768817901611
24,786414978,138.23152160644531,61.75146865844727,-53.33150100708008,-8.15965175628662,6.71488237380981,-14.33734989166260,303.49182128906250,-162.88694763183594,-11.98501491546631
25,786423311,139.21444702148438,62.82508468627930,-55.21729660034180,-7.01847362518311,6.61490201950073,-14.26126670837402,317.88372802734375,-166.12738037109375,-6.61896991729736
26,786431644,140.14294433593750,63.90844345092773,-57.23760223388672,-6.68072700500488,6.29032850265503,-13.17967033386230,327.72473144531250,-169.29165649414062,-1.94118976593018
27,786439977,143.83573913574219,63.26365661621094,-56.95791244506836,-5.57274246215820,5.31726551055908,-13.28483104705811,340.25958251953125,-173.18614196777344,0.39047512412071
28,786448310,147.44543457031250,62.65758895874023,-56.82366943359375,-4.92239141464233,5.42565584182739,-11.56540966033936,349.41098022460938,-174.68420410156250,2.56449604034424
29,786456643,148.84764099121094,63.85957336425781,-58.56496047973633,-3.91471385955811,5.13818788528442,-10.95203590393066,354.44973754882812,-172.05535888671875,2.98975682258606
30,786464976,150.24046325683594,65.07418060302734,-60.29262161254883,-3.03539013862610,5.65361356735229,-9.18011283874512,353.79873657226562,-170.81648254394531,2.44665884971619
31,786473309,153.99650573730469,64.61624908447266,-59.95969772338867,-2.49729490280151,5.89150333404541,-8.45759201049805,351.26089477539062,-171.49261474609375,5.01992607116699
32,786481642,157.19535827636719,64.29917907714844,-60.15681838989258,-2.26335096359253,6.93129348754883,-7.15747976303101,352.22573852539062,-179.29890441894531,12.53816604614258
33,786489975,158.38511657714844,65.71553802490234,-62.09869384765625,-1.86921370029449,8.06127643585205,-6.29163503646851,353.55688476562500,-194.50903320312500,26.11951446533203
34,786498308,159.04026794433594,67.27792358398438,-64.57938385009766,-1.34685897827148,8.98504924774170,-5.18780994415283,351.19021606445312,-217.68287658691406,41.82022476196289
35,786506641,160.97109985351562,67.42248535156250,-65.95836639404297,0.47931492328644,8.61462211608887,-4.88951253890991,340.86279296875000,-227.29949951171875,50.76336669921875
36,786514974,162.34225463867188,67.57257843017578,-67.78181457519531,2.45591282844543,7.86760520935059,-3.80352210998535,334.03997802734375,-213.57757568359375,53.31815719604492
37,786523307,162.72909545898438,68.99384307861328,-70.26591491699219,3.20699048042297,7.31744575500488,-2.86839032173157,322.93786621093750,-195.72589111328125,53.20310592651367
38,786531640,162.85668945312500,70.33773803710938,-72.89959716796875,3.02703237533569,6.25840187072754,-2.25324225425720,311.24188232421875,-186.44070434570312,56.43165588378906
39,786539973,163.81965637207031,70.39870452880859,-74.80356597900391,2.50527620315552,3.94685101509094,-1.04680573940277,302.45452880859375,-183.96424865722656,55.04018402099609
40,786548306,164.60295104980469,70.52404022216797,-76.74968719482422,2.56158208847046,1.93568325042725,-1.10444271564484,291.29684448242188,-172.79603576660156,50.10632324218750
41,786556639,164.78021240234375,71.71235656738281,-79.05008697509766,2.46714067459106,1.06697869300842,-1.81805849075317,282.05261230468750,-161.06767272949219,47.64235687255859
42,786564972,164.63702392578125,72.80095672607422,-81.60400390625000,2.10563492774963,1.42176067829132,-2.90785741806030,274.29800415039062,-150.55630493164062,54.82797241210938
43,786573305,164.81134033203125,72.86155700683594,-83.99691009521484,-0.08330849558115,2.56913757324219,-1.95318472385406,272.44573974609375,-151.15298461914062,73.96773529052734
44,786581638,164.46557617187500,73.01297760009766,-86.98212432861328,-1.22485554218292,2.45337104797363,-1.75646352767944,280.19445800781250,-154.66729736328125,91.90437316894531
45,786589971,162.84373474121094,73.94954681396484,-91.21517181396484,-1.54696810245514,3.08824706077576,-2.42359232902527,291.97836303710938,-148.39653015136719,106.04888153076172
46,786598304,160.64358520507812,74.71561431884766,-96.04531097412109,-2.65369915962219,5.27234601974487,-1.98937535285950,293.67007446289062,-136.21322631835938,118.98966979980469
47,786606637,159.10025024414062,74.64857482910156,-100.19461059570312,-5.67385244369507,7.44086551666260,-0.90075182914734,273.22348022460938,-133.77503967285156,130.17222595214844
48,786614970,156.60182189941406,74.64128112792969,-105.09724426269531,-7.58348274230957,7.78833484649658,-0.66118448972702,249.53880310058594,-141.44714355468750,140.98591613769531
49,786623303,152.34829711914062,75.21307373046875,-111.49293518066406,-9.01382255554199,7.23130464553833,-0.58930909633636,230.28363037109375,-147.77583312988281,149.55589294433594
50,786631636,147.68934631347656,75.63349151611328,-118.17620849609375,-9.76676177978516,6.52434873580933,-1.00282025337219,216.72889709472656,-144.41117858886719,148.68489074707031
51,786639969,144.34529113769531,75.41744232177734,-123.49810028076172,-10.84966945648193,5.81897735595703,-1.45628893375397,199.71206665039062,-137.75279235839844,140.80036926269531
52,786648302,141.07781982421875,75.19874572753906,-128.58496093750000,-11.59113788604736,5.62919473648071,-2.57848858833313,183.90277099609375,-132.70988464355469,128.54803466796875
53,786656635,136.90296936035156,75.37293243408203,-134.39486694335938,-10.50757694244385,5.54094552993774,-2.85451841354370,172.96189880371094,-131.89254760742188,118.90063476562500
54,786664968,132.56874084472656,75.46836853027344,-140.28341674804688,-9.65523910522461,5.63765525817871,-2.47428178787231,163.38096618652344,-134.32730102539062,116.09521484375000
55,786673301,129.56837463378906,75.13560485839844,-144.87849426269531,-9.34160518646240,5.23542594909668,-2.16992831230164,158.32221984863281,-132.56465148925781,112.07619476318359
56,786681634,126.73571777343750,74.75748443603516,-149.25563049316406,-9.75726795196533,5.02094793319702,-1.78552198410034,153.81579589843750,-127.29711914062500,107.73580932617188
57,786689967,123.00382995605469,74.63497924804688,-154.38375854492188,-10.65962791442871,4.64627361297607,-1.56057381629944,145.35136413574219,-124.80290985107422,103.88161468505859
58,786698300,120.36804199218750,74.20064544677734,-158.41250610351562,-11.48412609100342,4.38624334335327,-1.00526738166809,136.35017395019531,-125.99935913085938,100.71173095703125
59,786706633,116.94660949707031,73.99597167968750,-163.10507202148438,-11.63699150085449,3.28788232803345,-1.33451151847839,130.61027526855469,-123.55915832519531,94.49617004394531
60,786714966,114.94486236572266,73.55046081542969,-166.44969177246094,-11.08355522155762,2.76288127899170,-2.04704356193542,132.60255432128906,-115.29161071777344,87.20410156250000
61,786723299,112.32752227783203,73.28768157958984,-170.35417175292969,-10.73922443389893,2.73791503906250,-1.94547700881958,134.58682250976562,-109.81395721435547,81.44383239746094
62,786731632,110.82029724121094,72.86573028564453,-173.18501281738281,-10.35084438323975,2.50359058380127,-1.94312953948975,131.59053039550781,-107.93750000000000,76.30246734619141
63,786739965,108.63896942138672,72.59510803222656,-176.63691711425781,-9.61727333068848,1.81859469413757,-2.41265010833740,133.41650390625000,-104.76046752929688,71.02952575683594
64,786748298,107.59576416015625,72.19754028320312,-179.03616333007812,-9.63787460327148,2.17109465599060,-2.33612132072449,136.70854187011719,-100.08233642578125,68.15493774414062
65,786756631,105.88108825683594,71.90387725830078,177.93818664550781,-9.97053718566895,2.49968504905701,-1.61562836170197,139.26289367675781,-96.98024749755859,64.90974426269531
66,786764964,105.17455291748047,71.55300140380859,175.89723205566406,-9.90485477447510,2.89962577819824,-1.11624896526337,135.43278503417969,-92.59586334228516,59.28982162475586
67,786773297,103.82997894287109,71.32025909423828,173.40327453613281,-9.17345142364502,3.03254795074463,-2.43565750122070,121.97272491455078,-85.22832489013672,49.83382034301758
68,786781630,103.02887725830078,71.06850433349609,171.42742919921875,-9.26901435852051,3.74098610877991,-2.46516251564026,116.40005493164062,-95.11703491210938,46.71706008911133
69,786789963,101.25397491455078,70.87960052490234,168.49794006347656,-9.20422840118408,2.95167994499207,-1.63586401939392,118.97031402587891,-107.25175476074219,45.19374465942383
70,786798296,100.47284698486328,70.65953826904297,166.47834777832031,-7.91436719894409,2.69850516319275,-2.27571582794189,123.56219482421875,-99.66999053955078,41.49941635131836
71,786806629,99.46836853027344,70.46936798095703,164.32009887695312,-6.90815639495850,2.52128291130066,-3.19120121002197,123.31565093994141,-80.91614532470703,36.31745910644531
72,786814962,99.12330627441406,70.24514007568359,162.77259826660156,-7.94083929061890,2.48916196823120,-2.34101676940918,122.01596069335938,-82.82364654541016,38.10610961914062
73,786823295,98.02915954589844,70.04397583007812,160.52697753906250,-7.69712114334106,1.60724902153015,-2.11242079734802,121.78655242919922,-86.90064239501953,36.43151855468750
74,786831628,97.69179534912109,69.84804534912109,158.93679809570312,-7.73709440231323,1.28244173526764,-2.22308325767517,127.51316070556641,-86.15021514892578,35.14225769042969
75,786839961,96.79360198974609,69.64511871337891,156.79434204101562,-8.07564640045166,0.70780915021896,-2.11562752723694,133.04382324218750,-85.22219848632812,34.27569198608398
76,786848294,96.66564941406250,69.48875427246094,155.35762023925781,-8.13718318939209,0.16615176200867,-2.70383334159851,135.11314392089844,-81.09950256347656,30.73415374755859
77,786856627,95.97038269042969,69.30677795410156,153.36799621582031,-8.57786178588867,-0.47023543715477,-2.72495245933533,139.68521118164062,-81.11056518554688,29.84228515625000
78,786864960,96.07422637939453,69.18441772460938,152.06379699707031,-8.21647071838379,-1.19688415527344,-4.03355121612549,147.71743774414062,-76.47286987304688,28.33618354797363
79,786873293,95.75210571289062,68.96977233886719,150.25453186035156,-8.34737014770508,-0.95375490188599,-4.50309228897095,163.77377319335938,-74.49008178710938,32.48816680908203
80,786881626,96.15881347656250,68.79096221923828,149.02261352539062,-8.83487319946289,0.12413232028484,-4.10335779190063,175.16448974609375,-73.78901672363281,38.09863281250000
81,786889959,95.97311401367188,68.46997070312500,147.14418029785156,-9.29698944091797,0.60199666023254,-3.84512734413147,187.26480102539062,-77.63731384277344,45.85607910156250
82,786898292,96.55104827880859,68.18466186523438,145.87356567382812,-9.15680313110352,1.82454729080200,-4.93239212036133,199.24400329589844,-74.93090820312500,53.87435913085938
83,786906625,96.53074645996094,67.69220733642578,143.96734619140625,-9.41842079162598,4.56475639343262,-4.63138580322266,209.19680786132812,-78.67321014404297,67.35424804687500
84,786914958,96.90439605712891,67.28902435302734,142.40382385253906,-8.68563652038574,5.55587148666382,-2.67147803306580,206.04815673828125,-88.24994659423828,70.96347808837891
85,786923291,96.64508819580078,66.88962554931641,140.31837463378906,-5.70889949798584,4.66592073440552,-2.99447965621948,199.02966308593750,-91.14849090576172,57.92686080932617
86,786931624,97.12477874755859,66.65473175048828,138.89990234375000,-3.20222115516663,4.78536081314087,-3.36560511589050,202.25901794433594,-84.69332122802734,49.76037216186523
87,786939957,97.27203369140625,66.29394531250000,137.15568542480469,-2.90148019790649,5.21679306030273,-3.49689626693726,209.21580505371094,-77.53326416015625,52.25252151489258
88,786948290,97.99585723876953,65.94992828369141,135.89744567871094,-3.97279238700867,5.69095230102539,-3.61623764038086,213.44026184082031,-75.94831848144531,61.21443557739258
89,786956623,98.21984863281250,65.43496704101562,134.17546081542969,-5.58363008499146,6.20889091491699,-3.33013129234314,214.83970642089844,-75.56909179687500,71.99850463867188
90,786964956,98.86615753173828,64.91261291503906,132.80891418457031,-7.60615873336792,7.97016334533691,-2.47956585884094,215.02079772949219,-79.03659057617188,82.98002624511719
91,786973289,98.92537689208984,64.30432128906250,130.94062805175781,-8.82967472076416,8.61195182800293,-2.51649785041809,209.28115844726562,-83.77470397949219,85.78374481201172
92,786981622,99.26339721679688,63.74752807617188,129.28077697753906,-9.33689308166504,8.67508125305176,-2.87447285652161,208.61550903320312,-94.66655731201172,88.92951965332031
93,786989955,99.07407379150391,63.15497589111328,127.13371276855469,-9.13456535339355,8.76694107055664,-2.71605587005615,207.40135192871094,-102.44740295410156,87.33294677734375
94,786998288,99.20287322998047,62.67657089233398,125.29091644287109,-8.37292098999023,8.05630874633789,-2.57929277420044,201.63906860351562,-108.45994567871094,80.51988983154297
95,787006621,98.92059326171875,62.20228195190430,123.07973480224609,-7.81819772720337,6.69316244125366,-2.79744529724121,201.00315856933594,-112.36680603027344,74.31846618652344
96,787014954,99.09235382080078,61.81424331665039,121.21452331542969,-7.49735593795776,5.32562732696533,-3.27335023880005,207.80581665039062,-113.82718658447266,69.55340576171875
97,787023287,99.06100463867188,61.38447570800781,119.15668487548828,-7.73790073394775,4.78342723846436,-3.85394549369812,213.10394287109375,-107.94409179687500,68.22213745117188
98,787031620,99.48803710937500,60.96846771240234,117.52415466308594,-8.80198574066162,5.23961353302002,-4.06397914886475,212.38282775878906,-102.15473175048828,71.98280334472656
99,787039953,99.57505798339844,60.49316787719727,115.62846374511719,-9.82868576049805,5.20510149002075,-4.77922868728638,208.53083801269531,-100.34774780273438,73.41593933105469
100,787048286,100.02753448486328,60.07493591308594,114.06528472900391,-9.93140983581543,5.49895715713501,-5.73687171936035,206.40525817871094,-99.91052246093750,73.48746490478516
101,787056619,100.14230346679688,59.58696746826172,112.19296264648438,-9.76423549652100,6.53985071182251,-5.52873229980469,207.66714477539062,-101.02338409423828,76.16764068603516
102,787064952,100.62600708007812,59.16511535644531,110.65425872802734,-10.12742996215820,7.07265567779541,-5.19246053695679,205.61718750000000,-100.44554138183594,75.51305389404297
103,787073285,100.79441833496094,58.71383666992188,108.87705230712891,-10.44567584991455,6.80798339843750,-5.25591421127319,202.54724121093750,-98.16401672363281,72.38743591308594
104,787081618,101.36891937255859,58.33729553222656,107.42720794677734,-10.45713996887207,6.82628536224365,-5.30509662628174,205.67520141601562,-97.43621826171875,70.93389129638672
105,787089951,101.63162231445312,57.90975952148438,105.69915008544922,-10.46227169036865,6.93004417419434,-5.58107328414917,207.26867675781250,-97.20319366455078,70.81742095947266
106,787098284,102.26193237304688,57.54265213012695,104.26783752441406,-10.77779102325439,6.98600292205811,-5.49655771255493,208.87117004394531,-97.46914672851562,71.73057556152344
107,787106617,102.54051208496094,57.11412048339844,102.52857971191406,-11.72622203826904,7.64792251586914,-5.20658063888550,208.76925659179688,-99.11966705322266,73.11566925048828
108,787114950,102.87005615234375,56.73543548583984,100.85894012451172,-11.82406902313232,6.80236482620239,-6.25846481323242,207.08560180664062,-96.77803802490234,67.11950683593750
109,787123283,103.55705261230469,56.38250732421875,99.42198181152344,-12.86511325836182,8.12895584106445,-6.07502937316895,214.10990905761719,-98.91584014892578,73.81821441650391
110,787131616,104.24050903320312,56.05963897705078,97.96308135986328,-14.04735565185547,7.85392045974731,-6.75093173980713,214.94515991210938,-101.52326965332031,72.09685516357422
111,787139949,104.55683135986328,55.69256973266602,96.12560272216797,-14.76503944396973,7.45921325683594,-7.62339401245117,220.14781188964844,-108.99385833740234,72.08750915527344
112,787148282,104.87426757812500,55.32413482666016,94.19325256347656,-15.48502922058105,7.41255998611450,-8.06755161285400,228.86300659179688,-115.89392852783203,74.82623291015625
113,787156615,105.52707672119141,55.07054519653320,92.44096374511719,-15.92648315429688,6.85475063323975,-8.80229759216309,237.99496459960938,-123.38735198974609,74.00261688232422
114,787164948,106.19097900390625,54.84736251831055,90.56197357177734,-16.08423995971680,5.91487979888916,-9.16107177734375,250.56060791015625,-133.22483825683594,75.56861114501953
115,787173281,106.56613922119141,54.53232192993164,88.28511047363281,-15.99668121337891,5.91981029510498,-9.46103286743164,267.63735961914062,-141.01269531250000,79.42536926269531
116,787181614,106.89173889160156,54.18021011352539,85.81424713134766,-16.97237205505371,7.14954805374146,-8.46503639221191,279.68392944335938,-153.44696044921875,88.87696838378906
117,787189947,107.54043579101562,53.98612976074219,83.48812103271484,-16.86930465698242,6.18796586990356,-9.30459976196289,289.78704833984375,-164.30278015136719,88.62432861328125
118,787198280,108.21382141113281,53.82262039184570,81.02061462402344,-16.04173278808594,5.06460332870483,-9.55533027648926,305.37905883789062,-174.68598937988281,91.84741210937500
119,787206613,108.62349700927734,53.55432510375977,78.17770385742188,-15.05568885803223,3.82838821411133,-9.72847557067871,323.72406005859375,-181.67819213867188,92.95655059814453
120,787214946,109.11931610107422,53.33279800415039,75.28015899658203,-14.27221393585205,2.67102360725403,-10.02873134613037,338.45715332031250,-187.52137756347656,90.78092956542969
121,787223279,110.03842926025391,53.35718917846680,72.62846374511719,-13.06731033325195,1.80064904689789,-10.77376651763916,351.13977050781250,-192.08227539062500,84.52318572998047
122,787231612,111.01420593261719,53.48667526245117,69.97546386718750,-11.87048816680908,1.49934518337250,-11.16064929962158,357.54266357421875,-195.26008605957031,77.81486511230469
123,787239945,111.63439941406250,53.54397201538086,67.02986907958984,-10.42654609680176,0.93146568536758,-11.90750503540039,358.28057861328125,-198.48603820800781,68.56147003173828
124,787248278,112.23594665527344,53.70232009887695,64.11914825439453,-8.61606216430664,0.49520942568779,-12.57650279998779,353.06564331054688,-199.43305969238281,58.36540222167969
125,787256611,113.09395599365234,54.12331390380859,61.45328140258789,-7.32576608657837,0.78205299377441,-13.31883621215820,346.90029907226562,-202.67208862304688,55.43001556396484
126,787264944,113.85932159423828,54.59563827514648,58.76391601562500,-5.77106761932373,0.99667429924011,-14.48822689056396,338.55957031250000,-205.44105529785156,53.52334976196289
127,787273277,114.17710113525391,54.89199066162109,55.72060012817383,-2.73384213447571,1.77874386310577,-15.20520305633545,336.00784301757812,-207.23974609375000,51.79813385009766
128,787281610,114.45042419433594,55.20882034301758,52.60202026367188,0.87531894445419,2.54487657546997,-14.48825740814209,339.20117187500000,-211.20289611816406,52.18051147460938
129,787289943,115.23798370361328,55.76181411743164,49.79199600219727,4.25274133682251,3.67993164062500,-13.33274650573730,357.50433349609375,-210.01075744628906,52.47235488891602
130,787298276,116.14033508300781,56.27419281005859,46.96103668212891,6.09368658065796,5.75919103622437,-10.96587371826172,374.33599853515625,-208.51072692871094,57.76306152343750
131,787306609,116.53249359130859,56.52896881103516,43.63697052001953,6.31028985977173,6.77031612396240,-8.41046428680420,378.97201538085938,-211.59405517578125,68.94445800781250
132,787314942,116.85929107666016,56.72426986694336,40.27752304077148,6.21273326873779,7.30021047592163,-6.46868658065796,375.53823852539062,-208.85160827636719,77.19544219970703
133,787323275,117.51953887939453,57.10057830810547,37.37160110473633,5.55153799057007,8.31887912750244,-4.71480417251587,357.62850952148438,-198.09304809570312,76.32965087890625
134,787331608,117.98873138427734,57.49091339111328,34.56250000000000,4.66000986099243,8.00373458862305,-3.91251134872437,327.07586669921875,-191.36489868164062,69.40005493164062
135,787339941,117.91787719726562,57.71648025512695,31.49255371093750,4.44200754165649,7.48404407501221,-3.46386528015137,302.21972656250000,-187.23442077636719,66.97904968261719
136,787348274,117.74985504150391,57.92599487304688,28.46092224121094,4.29472351074219,6.52921009063721,-3.39866471290588,287.41528320312500,-183.26531982421875,66.67085266113281
137,787356607,117.84804534912109,58.27143096923828,25.76961326599121,4.17631244659424,4.84417963027954,-3.63856840133667,275.32989501953125,-176.02957153320312,66.71881866455078
138,787364940,117.92226409912109,58.55928421020508,23.17206192016602,4.20338487625122,3.06424784660339,-4.41230154037476,264.58224487304688,-166.30554199218750,66.98854827880859
139,787373273,117.75028991699219,58.65820312500000,20.46309661865234,4.12617874145508,1.15720319747925,-5.57295751571655,256.52499389648438,-155.46316528320312,66.90231323242188
140,787381606,117.70563507080078,58.71009445190430,17.91112327575684,4.19989728927612,-0.79000627994537,-6.66286659240723,255.92492675781250,-143.98556518554688,66.93818664550781
141,787389939,118.10250854492188,58.84408950805664,15.71000194549561,4.02490282058716,-1.80560004711151,-7.30903244018555,264.59457397460938,-133.07189941406250,70.08522033691406
142,787398272,118.63982391357422,58.90243911743164,13.52734088897705,3.93736338615417,-1.11052310466766,-7.61042547225952,279.26931762695312,-128.10334777832031,77.82189941406250
143,787406605,118.98831939697266,58.73317337036133,11.02242755889893,3.57246851921082,-0.04663217812777,-7.53302526473999,298.64465332031250,-126.75629425048828,91.10633087158203
144,787414938,119.45764923095703,58.43202209472656,8.47275543212891,2.81556320190430,1.54169726371765,-7.41293191909790,317.08523559570312,-121.74428558349609,107.75498199462891
145,787423271,120.19622039794922,58.12015151977539,6.00246334075928,0.82211112976074,4.32753372192383,-5.63582324981689,331.35043334960938,-121.08500671386719,129.64239501953125
146,787431604,120.82365417480469,57.74558258056641,3.32738637924194,-1.66201710700989,5.55485773086548,-5.54438638687134,337.70278930664062,-128.99952697753906,143.62051391601562
147,787439937,121.23972320556641,57.19889450073242,0.45135912299156,-2.64252972602844,6.55262279510498,-6.56800985336304,340.57928466796875,-125.36753845214844,150.14889526367188
148,787448270,121.83013916015625,56.55913543701172,-2.19889569282532,-3.50790262222290,7.59857988357544,-6.95091962814331,336.86993408203125,-108.15263366699219,154.63787841796875
149,787456603,122.73783111572266,56.03321456909180,-4.47446393966675,-5.15529966354370,9.84302234649658,-7.30729198455811,327.05358886718750,-97.11511993408203,151.67500305175781
150,787464936,123.56793212890625,55.51276779174805,-6.68910503387451,-6.32149744033813,12.04413795471191,-6.94077157974243,310.56436157226562,-94.09455871582031,149.55966186523438
151,787473269,123.97410583496094,54.89892578125000,-9.12739181518555,-8.46961879730225,14.00683784484863,-5.50574779510498,288.68435668945312,-97.99861907958984,152.28999328613281
152,787481602,124.04146575927734,54.35420989990234,-11.75696563720703,-10.44897937774658,14.20107078552246,-4.68051671981812,265.04455566406250,-115.04315948486328,154.63645935058594
153,787489935,124.08039093017578,53.97742080688477,-14.34619235992432,-10.58499240875244,14.40319347381592,-4.24005889892578,248.89028930664062,-126.70924377441406,152.70965576171875
154,787498268,123.89160156250000,53.66378021240234,-16.94288825988770,-10.29457855224609,14.21586322784424,-3.66904926300049,222.40777587890625,-132.28979492187500,145.16903686523438
155,787506601,123.48669433593750,53.32748031616211,-19.55008125305176,-9.54201984405518,12.51135540008545,-4.66598987579346,202.55738830566406,-132.61596679687500,135.04640197753906
156,787514934,123.16553497314453,53.12044906616211,-21.98247146606445,-8.89375782012939,11.64090347290039,-4.40039014816284,190.18664550781250,-132.28666687011719,126.02163696289062
157,787523267,122.65805816650391,52.88075256347656,-24.39433288574219,-8.49555301666260,10.56493091583252,-4.14223527908325,169.91162109375000,-130.72927856445312,117.01474761962891
158,787531600,122.27883911132812,52.74217987060547,-26.59108352661133,-8.32194805145264,9.39962482452393,-4.80589675903320,160.34831237792969,-124.90532684326172,107.29104614257812
159,787539933,121.95081329345703,52.54253768920898,-28.64372062683105,-8.12934875488281,9.38069438934326,-4.45398807525635,156.08671569824219,-113.98783111572266,97.97316741943359
160,787548266,121.78071594238281,52.41020584106445,-30.47347068786621,-8.14445018768311,9.21800327301025,-4.29037380218506,150.25265502929688,-104.43957519531250,90.69544219970703
161,787556599,121.59966278076172,52.22749328613281,-32.24973297119141,-8.18809127807617,9.16867065429688,-4.43043422698975,146.62750244140625,-99.47737121582031,85.32542419433594
162,787564932,121.38408660888672,52.11127853393555,-33.98637008666992,-8.47805309295654,9.24122619628906,-5.09453964233398,135.77282714843750,-100.78768920898438,84.18100738525391
163,787573265,121.14664459228516,51.92072677612305,-35.72653961181641,-8.28248405456543,8.66422557830811,-6.60459709167480,135.75480651855469,-98.11155700683594,84.46701049804688
164,787581598,121.08875274658203,51.73071670532227,-37.27314758300781,-8.39241600036621,8.97303867340088,-5.74755477905273,136.23910522460938,-85.75360107421875,83.39183807373047
165,787589931,120.99369812011719,51.47098541259766,-38.71218872070312,-8.86878013610840,8.59195804595947,-4.53067922592163,123.58528137207031,-75.95565032958984,80.23265075683594
166,787598264,120.93866729736328,51.28486251831055,-40.04153442382812,-9.14174365997314,8.27061939239502,-3.59077548980713,115.57069396972656,-73.34220123291016,74.17684936523438
167,787606597,120.85190582275391,51.10025787353516,-41.34415817260742,-8.65558624267578,8.12514781951904,-4.18390512466431,111.05238342285156,-72.81000518798828,67.52671813964844
168,787614930,120.82125091552734,50.97529983520508,-42.57724761962891,-8.64850139617920,8.20591926574707,-5.24406480789185,109.26530456542969,-71.51429748535156,63.77545928955078
169,787623263,120.76268768310547,50.80935287475586,-43.81348800659180,-8.82532024383545,7.86932420730591,-5.15755987167358,107.74212646484375,-70.31079101562500,63.22365951538086
170,787631596,120.80677032470703,50.65221405029297,-44.92377853393555,-8.08166503906250,7.35919904708862,-5.75528764724731,106.42202758789062,-62.29103088378906,62.02135086059570
171,787639929,120.85769653320312,50.41919708251953,-45.91829681396484,-8.51910305023193,8.20071506500244,-5.62812614440918,97.90180969238281,-50.92176818847656,61.10253906250000
172,787648262,121.01586914062500,50.18192672729492,-46.81684112548828,-8.92808914184570,8.47018623352051,-6.06111669540405,99.89400482177734,-44.26483535766602,61.97246551513672
173,787656595,121.19567108154297,49.88074111938477,-47.70744323730469,-9.58357906341553,9.37279891967773,-5.03464603424072,103.13803863525391,-40.22424697875977,64.62581634521484
174,787664928,121.39450073242188,49.60118865966797,-48.53281784057617,-9.56247520446777,9.41258335113525,-4.80487585067749,97.47017669677734,-37.30279159545898,63.48966217041016
175,787673261,121.51081848144531,49.32895278930664,-49.36692047119141,-9.71071529388428,10.08774566650391,-4.19420909881592,89.68951416015625,-38.56125640869141,60.02706527709961
176,787681594,121.64058685302734,49.10639190673828,-50.17778778076172,-8.68275451660156,9.92988300323486,-4.49858188629150,87.59194183349609,-40.15565872192383,56.96855163574219
177,787689927,121.74366760253906,48.86710357666016,-50.96097183227539,-8.19629859924316,10.65851497650146,-3.74493145942688,82.93750762939453,-37.50605773925781,55.04454803466797
178,787698260,121.76193237304688,48.65819931030273,-51.76248168945312,-8.38364028930664,10.99305534362793,-2.88685059547424,73.29040527343750,-40.72032165527344,54.73618316650391
179,787706593,121.69293212890625,48.45507812500000,-52.61161041259766,-7.87899827957153,10.52226161956787,-2.45806980133057,67.75336456298828,-44.65878295898438,54.40926361083984
180,787714926,121.62136840820312,48.26331710815430,-53.43672943115234,-7.67445564270020,10.32477760314941,-1.78042507171631,64.85398864746094,-43.69713973999023,53.18740844726562
181,787723259,121.54465484619141,48.05721664428711,-54.22224426269531,-7.76914787292480,10.08253574371338,-1.72284615039825,60.67425155639648,-40.72854614257812,52.21104049682617
182,787731592,121.42031860351562,47.83219146728516,-55.00416946411133,-8.54772853851318,10.04317474365234,-2.11595582962036,54.93738937377930,-38.93109130859375,54.03195190429688
183,787739925,121.28124237060547,47.59286117553711,-55.74459457397461,-9.18658828735352,10.20203113555908,-2.25515842437744,48.69649887084961,-36.22953033447266,53.84220123291016
184,787748258,121.12226104736328,47.35366821289062,-56.42675399780273,-10.08511161804199,10.12968254089355,-2.55866718292236,42.07872772216797,-31.55469512939453,50.74068069458008
185,787756591,121.00155639648438,47.13533020019531,-56.98780822753906,-10.26332283020020,9.50580787658691,-3.66685581207275,34.60491943359375,-25.75244140625000,44.23738861083984
186,787764924,120.92538452148438,46.93792724609375,-57.44304656982422,-10.06402111053467,9.29063034057617,-3.49723839759827,32.07936859130859,-18.55288124084473,36.62859344482422
187,787773257,120.91464996337891,46.75660705566406,-57.74295806884766,-10.45556926727295,9.12613105773926,-3.02586317062378,24.61826133728027,-10.05561256408691,29.52549362182617
188,787781590,120.85451507568359,46.62304306030273,-58.02722549438477,-10.57582187652588,8.18413162231445,-2.67989063262939,19.18113517761230,-10.41284942626953,22.74669265747070
189,787789923,120.86570739746094,46.54670333862305,-58.23157882690430,-9.89480495452881,7.15504837036133,-2.30776786804199,18.80726242065430,-9.88765144348145,14.72035598754883
190,787798256,120.87915802001953,46.49155426025391,-58.38376617431641,-9.66819190979004,6.76670503616333,-1.69495463371277,16.71844100952148,-5.53087043762207,9.23775100708008
191,787806589,120.92360687255859,46.46326065063477,-58.45901489257812,-9.58817863464355,6.25480461120605,-1.37227988243103,11.53411865234375,-3.71149063110352,4.31687021255493
192,787814922,120.93597412109375,46.48159790039062,-58.51974868774414,-9.01335906982422,5.83120536804199,-1.06058573722839,8.91992855072021,-3.01345109939575,-1.93542456626892
193,787823255,121.00912475585938,46.52428436279297,-58.47810745239258,-8.62752819061279,5.77473402023315,-0.88735020160675,4.80318164825439,0.19172257184982,-7.95443773269653
194,787831588,121.03966522216797,46.60072708129883,-58.42433929443359,-8.49673175811768,5.53408956527710,-1.04382050037384,1.43734288215637,2.08453774452209,-12.50844383239746
195,787839921,121.13323974609375,46.69157409667969,-58.32703018188477,-8.35398674011230,5.47769832611084,-0.71603423357010,2.38796424865723,1.11378395557404,-15.26850700378418
196,787848254,121.18572235107422,46.81509017944336,-58.22620391845703,-8.07718563079834,5.53755426406860,-0.31107991933823,0.21843825280666,2.99566221237183,-19.08006286621094
197,787856587,121.30257415771484,46.94990539550781,-58.04348754882812,-7.98973035812378,5.04779243469238,-0.42786890268326,-2.33610844612122,4.29996585845947,-23.39931678771973
198,787864920,121.36612701416016,47.11985397338867,-57.87098312377930,-7.42017936706543,4.88145160675049,-0.59398269653320,-4.47046804428101,5.62332725524902,-26.64029502868652
199,787873253,121.51178741455078,47.28411102294922,-57.65569686889648,-7.23920679092407,4.73338079452515,-0.45252490043640,-1.82712852954865,4.57345008850098,-27.76539993286133
200,787881586,121.62055969238281,47.46508026123047,-57.39156723022461,-6.69758558273315,4.79761314392090,-0.64698445796967,-6.99278259277344,11.61376285552979,-31.43273162841797
201,787889919,121.80377197265625,47.60932159423828,-57.01712036132812,-6.84763860702515,4.30719375610352,-1.11959362030029,-11.51416492462158,16.58434295654297,-32.46653747558594
202,787898252,121.92890167236328,47.77508544921875,-56.68505477905273,-6.70147371292114,3.90797233581543,-1.05547881126404,-11.01778411865234,17.33332824707031,-32.57611083984375
203,787906585,122.16104888916016,47.90028762817383,-56.26900482177734,-6.83472585678101,3.80693674087524,-0.93777149915695,-9.49824428558350,20.30819702148438,-32.31200408935547
204,787914918,122.32983398437500,48.04407882690430,-55.86049652099609,-6.83469295501709,3.96675658226013,-1.03565895557404,-12.68064117431641,23.96064376831055,-33.34949111938477
205,787923251,122.56600952148438,48.13415145874023,-55.39612197875977,-7.44125699996948,3.84109997749329,-1.25852417945862,-13.48864459991455,25.48792266845703,-30.89292907714844
206,787931584,122.79598236083984,48.24700164794922,-54.94825744628906,-7.32625102996826,3.78759312629700,-0.75387078523636,-12.81509017944336,22.72065734863281,-32.54246139526367
207,787939917,122.97471618652344,48.36689376831055,-54.50304031372070,-7.04797887802124,3.76397013664246,-0.93023085594177,-14.96118640899658,27.79426193237305,-32.27815628051758
208,787948250,123.15312194824219,48.50991821289062,-54.04141235351562,-7.05663442611694,3.67014074325562,-1.01125049591064,-16.47473526000977,27.58461189270020,-35.02731323242188
209,787956583,123.40435028076172,48.60343551635742,-53.53152465820312,-6.91702127456665,3.81049442291260,-1.44027650356293,-16.07538223266602,27.57402992248535,-33.40592956542969
210,787964916,123.66019439697266,48.68601608276367,-53.05027770996094,-6.94110822677612,3.73724603652954,-1.62298607826233,-12.99951171875000,26.21049690246582,-31.13682556152344
211,787973249,123.82720947265625,48.78686523437500,-52.64710235595703,-7.31956195831299,4.25887918472290,-1.42595314979553,-12.79167842864990,26.26443862915039,-28.06000900268555
212,787981582,123.97319793701172,48.88244247436523,-52.26515197753906,-7.39149475097656,3.99139046669006,-1.48063981533051,-13.45103836059570,25.34111785888672,-26.41388130187988
213,787989915,124.19535064697266,48.90911865234375,-51.85110473632812,-7.53294944763184,4.31654262542725,-1.60272848606110,-11.13394355773926,25.13397026062012,-22.75856781005859
214,787998248,124.35709381103516,48.93602371215820,-51.50130844116211,-7.99044656753540,4.24625444412231,-1.42702281475067,-12.58913898468018,20.84900665283203,-20.00134277343750
215,788006581,124.39062500000000,49.01813507080078,-51.26875305175781,-7.85696172714233,3.98309135437012,-1.41730880737305,-13.49800491333008,16.51033210754395,-18.27514076232910
216,788014914,124.42337036132812,49.10227203369141,-51.03472137451172,-7.86498689651489,3.94981050491333,-1.17986190319061,-13.68137836456299,16.73030662536621,-18.25377845764160
217,788023247,124.52036285400391,49.13410186767578,-50.74674224853516,-8.00293254852295,4.04144811630249,-1.04321944713593,-14.84959316253662,16.36007881164551,-17.75653076171875
218,788031580,124.59767913818359,49.16763687133789,-50.48170089721680,-8.03839015960693,4.10586738586426,-1.13962483406067,-15.13547611236572,14.72460746765137,-16.91617774963379
219,788039913,124.57430267333984,49.25221633911133,-50.32962417602539,-8.05489253997803,4.30408430099487,-1.01681447029114,-12.99816799163818,11.68153095245361,-14.33894443511963
220,788048246,124.51431274414062,49.33605957031250,-50.20792388916016,-7.97055244445801,4.28999185562134,-0.98475438356400,-14.51127624511719,10.11634635925293,-12.65329647064209
221,788056579,124.50479888916016,49.36397933959961,-50.04595947265625,-7.94320440292358,4.03631687164307,-1.20237076282501,-16.24607849121094,8.41176891326904,-11.73871326446533
222,788064912,124.48549652099609,49.38553237915039,-49.88889694213867,-7.70960760116577,3.83213257789612,-1.36103618144989,-16.98018455505371,8.52560043334961,-10.88588905334473
223,788073245,124.39075469970703,49.46205520629883,-49.79068374633789,-7.66352367401123,3.51104092597961,-1.54504752159119,-16.50468063354492,9.44123268127441,-10.60907554626465
224,788081578,124.31366729736328,49.53751373291016,-49.66923141479492,-7.55614376068115,3.48039841651917,-1.75789511203766,-16.49072074890137,11.23376750946045,-11.24021053314209
225,788089911,124.34090423583984,49.52743530273438,-49.44720458984375,-7.74965190887451,3.70790529251099,-1.90836215019226,-17.36019897460938,14.83843612670898,-10.55800151824951
226,788098244,124.35198211669922,49.51311492919922,-49.22293472290039,-8.03462123870850,3.73606300354004,-1.91135632991791,-19.50142288208008,15.27142238616943,-10.24228096008301
227,788106577,124.25321960449219,49.55798721313477,-49.08843994140625,-8.04237365722656,3.85994291305542,-1.84881782531738,-20.39412879943848,14.28222274780273,-8.44431209564209
228,788114910,124.13587188720703,49.60768508911133,-48.96444320678711,-8.00747966766357,3.65356016159058,-1.78494012355804,-21.70358276367188,13.44230842590332,-8.15776729583740
229,788123243,124.08120727539062,49.59731292724609,-48.77843475341797,-7.82918548583984,3.72176551818848,-1.55975663661957,-23.92354774475098,12.55677318572998,-8.88941383361816
230,788131576,123.99805450439453,49.57170867919922,-48.61759948730469,-7.89872121810913,3.77695941925049,-1.18954908847809,-25.03343772888184,11.96649265289307,-6.26479816436768
231,788139909,123.78802490234375,49.63274383544922,-48.55837249755859,-8.05183219909668,3.46438527107239,-0.91388493776321,-26.96751403808594,8.70239067077637,-6.09807491302490
232,788148242,123.54826354980469,49.69646835327148,-48.52595901489258,-7.87229061126709,3.69602298736572,-0.70522207021713,-28.03322601318359,7.08582496643066,-4.91485071182251
233,788156575,123.35469055175781,49.67813110351562,-48.47190093994141,-8.23292922973633,3.63902902603149,-0.54505318403244,-28.54026031494141,4.59870624542236,-2.28549599647522
234,788164908,123.10843658447266,49.68265914916992,-48.47728347778320,-8.19400882720947,3.29453492164612,-0.61716336011887,-29.41600990295410,-0.76887583732605,-2.02876400947571
235,788173241,122.78227996826172,49.75861358642578,-48.56530761718750,-7.96382427215576,3.14885997772217,-0.91154724359512,-27.26968765258789,-1.15964686870575,-0.72399961948395
236,788181574,122.48489379882812,49.83440399169922,-48.61394500732422,-7.92445755004883,3.12001037597656,-1.11004042625427,-27.36008071899414,1.73521208763123,-2.04830789566040
237,788189907,122.26628875732422,49.81871795654297,-48.58636093139648,-7.68727302551270,3.43519616127014,-1.15308094024658,-29.12728691101074,2.70002412796021,-1.36023223400116
238,788198240,122.01671600341797,49.79630279541016,-48.58812713623047,-7.68023538589478,3.39340567588806,-0.84523415565491,-30.15088653564453,1.19874715805054,0.54322713613510
239,788206573,121.65859222412109,49.87332153320312,-48.66903686523438,-7.36646604537964,3.20469927787781,-0.76347064971924,-31.69117355346680,-0.25034093856812,-0.57021170854568
240,788214906,121.30725860595703,49.93612670898438,-48.75592422485352,-7.02849864959717,3.45785117149353,-0.70861238241196,-30.27577972412109,0.46364364027977,1.32499980926514
241,788223239,121.01615905761719,49.90457153320312,-48.82055664062500,-7.36701631546021,3.42432093620300,-0.37053534388542,-29.36565399169922,-2.41797256469727,4.01982355117798
242,788231572,120.67062377929688,49.87875366210938,-48.98202896118164,-7.49289846420288,3.39824891090393,-0.17044991254807,-27.00937461853027,-9.24476051330566,7.25282955169678
243,788239905,120.19485473632812,49.93955230712891,-49.28801345825195,-7.46179294586182,3.31858062744141,-0.09591350704432,-24.95738983154297,-13.82064437866211,10.20728015899658
244,788248238,119.67082977294922,49.99549102783203,-49.63250732421875,-7.44084310531616,3.25459289550781,-0.15738756954670,-27.03488540649414,-15.87767696380615,12.19825172424316
245,788256571,119.21357727050781,49.95632553100586,-49.92484283447266,-7.46766710281372,3.13010048866272,-0.07890327274799,-28.36950302124023,-17.43682098388672,13.38401603698730
246,788264904,118.72964477539062,49.90926361083984,-50.22967529296875,-7.75667333602905,3.13112425804138,-0.17258049547672,-30.44377899169922,-17.97567176818848,14.53968524932861
247,788273237,118.12464141845703,49.96977233886719,-50.61442565917969,-8.10887908935547,3.15057468414307,-0.28637987375259,-32.85241699218750,-18.91069793701172,12.83915519714355
248,788281570,117.49240875244141,50.01480102539062,-51.04199218750000,-8.42970657348633,3.41159605979919,-0.40992933511734,-32.04103469848633,-20.81811714172363,16.02664566040039
249,788289903,116.95755004882812,49.95019149780273,-51.44207382202148,-8.67719936370850,3.30425167083740,-0.17243412137032,-27.78271484375000,-23.99751472473145,19.21716117858887
250,788298236,116.45121765136719,49.88614273071289,-51.79858016967773,-8.76581287384033,3.45199036598206,-0.26813924312592,-28.39445495605469,-21.25844955444336,17.44270324707031
251,788306569,115.84140014648438,49.92695999145508,-52.16867065429688,-8.46344566345215,3.19124650955200,-0.41503024101257,-34.47938156127930,-16.80930328369141,14.05457687377930
252,788314902,115.24145507812500,49.97591400146484,-52.49988174438477,-8.25855064392090,2.65341401100159,-1.22187066078186,-36.79007720947266,-14.40924549102783,11.96063613891602
253,788323235,114.75059509277344,49.92561721801758,-52.78538131713867,-8.18463706970215,2.61026406288147,-0.70994597673416,-33.04365158081055,-17.51528358459473,12.99160861968994
254,788331568,114.20796966552734,49.98627853393555,-53.09335708618164,-7.92717742919922,2.23445034027100,-0.17432959377766,-32.07260513305664,-13.48407840728760,9.96440982818604
255,788339901,113.81356048583984,49.94811248779297,-53.24109268188477,-8.15930271148682,2.40913152694702,-0.06212404742837,-34.12059402465820,-8.63301849365234,7.03144788742065
256,788348234,113.30286407470703,50.02253341674805,-53.46553802490234,-8.49486446380615,2.34630823135376,-0.33637908101082,-35.89896774291992,-8.17242431640625,5.99545431137085
257,788356567,112.94341278076172,49.98581695556641,-53.52516937255859,-8.45914459228516,2.61730384826660,-0.34564322233200,-38.01386642456055,-2.57749986648560,4.07246351242065
258,788364900,112.45073699951172,50.04797363281250,-53.67395782470703,-9.32516479492188,2.92449545860291,0.41807708144188,-40.72524261474609,-2.14080214500427,5.37261867523193
259,788373233,112.05293273925781,49.99456024169922,-53.74481201171875,-9.82533454895020,2.79136013984680,-0.08808512985706,-41.59078598022461,-2.69993686676025,6.21468973159790
260,788381566,111.58877563476562,50.04114913940430,-53.85072326660156,-9.76951313018799,3.14473438262939,-0.61072325706482,-41.19329833984375,1.81156957149506,6.32800626754761
261,788389899,111.18730163574219,49.95151901245117,-53.89483261108398,-10.27566814422607,3.17687344551086,-0.50910133123398,-44.48789596557617,0.69094520807266,9.47259521484375
262,788398232,110.62689208984375,49.97084426879883,-54.06403732299805,-10.35757827758789,3.24559426307678,-0.72415030002594,-46.97989273071289,-1.54960048198700,11.63534069061279
263,788406565,110.19212341308594,49.86251831054688,-54.13383102416992,-10.58319377899170,2.59098649024963,-0.47542133927345,-46.12765121459961,-0.58225113153458,12.28852939605713
264,788414898,109.64676666259766,49.87419128417969,-54.27910232543945,-10.73466396331787,2.70780968666077,-0.23065724968910,-47.46482849121094,0.43101161718369,12.39616298675537
265,788423231,109.21108245849609,49.76892852783203,-54.35086822509766,-11.17598342895508,2.16619014739990,0.05968287587166,-46.06541061401367,-1.09264135360718,11.99020290374756
266,788431564,108.71690368652344,49.80318069458008,-54.50510025024414,-11.33413600921631,2.18494677543640,0.06667057424784,-40.55010223388672,-1.09384477138519,10.75025939941406
267,788439897,108.39031219482422,49.73715972900391,-54.51012802124023,-11.30782508850098,1.91258859634399,0.06365127861500,-39.09169387817383,2.10541629791260,5.87158536911011
268,788448230,107.90319824218750,49.82353591918945,-54.66466903686523,-11.45947551727295,2.20014262199402,0.51562821865082,-39.72536468505859,-2.96066379547119,5.58747148513794
269,788456563,107.58830261230469,49.80951690673828,-54.68775939941406,-10.93914699554443,1.68533277511597,0.07422488927841,-36.03751373291016,-1.22893404960632,0.38682663440704
270,788464896,107.17256927490234,49.93773269653320,-54.83856964111328,-11.13415431976318,2.10282921791077,0.55678403377533,-31.53154754638672,-3.95779967308044,1.41313850879669
271,788473229,106.93361663818359,49.94258117675781,-54.86206436157227,-11.18827724456787,1.22468781471252,0.10735815763474,-26.88547325134277,-1.93578422069550,-1.77892255783081
272,788481562,106.67486572265625,50.09283065795898,-54.95331192016602,-11.41326999664307,1.62149918079376,0.21902678906918,-18.19498443603516,-0.04470965266228,-1.72239112854004
273,788489895,106.56888580322266,50.10072326660156,-54.95200347900391,-11.99778175354004,1.20502185821533,0.04878936335444,-13.20330524444580,-0.19903542101383,-2.68315553665161
274,788498228,106.39324188232422,50.25530242919922,-55.07353210449219,-12.52650928497314,1.64382278919220,0.11352292448282,-5.54459810256958,-2.13247466087341,-0.71613562107086
275,788506561,106.35556030273438,50.26569747924805,-55.09487533569336,-12.69014453887939,1.92984080314636,-0.17643655836582,-2.91893458366394,-1.93831896781921,-2.47621798515320
276,788514894,106.25150299072266,50.43749618530273,-55.21695709228516,-12.86860466003418,2.22671747207642,-0.01343148760498,3.01126074790955,-2.46722722053528,-1.83716833591461
277,788523227,106.25186157226562,50.45627212524414,-55.24860382080078,-12.95176410675049,2.56153512001038,-0.13389956951141,2.60606908798218,-2.95889258384705,-3.21465063095093
278,788531560,106.24184417724609,50.67256164550781,-55.29949188232422,-12.82994079589844,2.53270721435547,-0.41324603557587,7.62115669250488,1.54149031639099,-7.72652101516724
279,788539893,106.33943176269531,50.72508239746094,-55.25772857666016,-13.01372528076172,3.34545874595642,-0.56210643053055,7.46370744705200,1.28140342235565,-8.66174888610840
280,788548226,106.37831115722656,50.97987365722656,-55.27059936523438,-13.22495937347412,3.18331646919250,-0.76779657602310,9.80592536926270,3.16038727760315,-12.29835796356201
281,788556559,106.57884216308594,51.08758926391602,-55.11939620971680,-12.31980323791504,3.36015677452087,-1.67012119293213,9.59068965911865,7.28643226623535,-17.34213638305664
282,788564892,106.69207000732422,51.38940811157227,-55.08653259277344,-12.63912105560303,3.65774822235107,-0.89826506376266,14.16011905670166,4.78084754943848,-18.11028289794922
283,788573225,106.94001007080078,51.52862167358398,-54.97506332397461,-12.41021442413330,3.84412169456482,-0.55473649501801,18.92004394531250,3.16248917579651,-20.10509872436523
284,788581558,107.17694091796875,51.87743377685547,-54.87243652343750,-11.52308940887451,3.93615078926086,-0.70695436000824,22.21171188354492,7.98253011703491,-24.59323692321777
285,788589891,107.48430633544922,52.03871917724609,-54.74026107788086,-11.26154613494873,4.32436752319336,-0.78140830993652,24.02102851867676,3.59560155868530,-23.07830810546875
286,788598224,107.61792755126953,52.38206863403320,-54.84371185302734,-11.50223636627197,4.38761997222900,-0.37804606556892,29.14624214172363,-6.55457496643066,-19.21634483337402
287,788606557,107.87424468994141,52.54381561279297,-54.87957382202148,-10.77110481262207,3.63204908370972,-0.99964284896851,33.79477310180664,-8.37385559082031,-19.36760330200195
288,788614890,108.11106109619141,52.86938095092773,-54.98600769042969,-10.22358036041260,3.77020883560181,-1.58590340614319,41.79592514038086,-6.09480381011963,-16.97441864013672
289,788623223,108.42082977294922,52.96721267700195,-55.08953094482422,-10.77116489410400,4.14122104644775,-1.02123844623566,46.70729827880859,-10.74479675292969,-10.47254180908203
290,788631556,108.62574768066406,53.24332046508789,-55.29282379150391,-10.15165519714355,3.83709383010864,-1.18612003326416,47.20462799072266,-10.93646907806396,-9.09359741210938
291,788639889,109.00660705566406,53.27968597412109,-55.37067413330078,-9.74889278411865,4.56548833847046,-1.99395239353180,52.81707000732422,-6.63952112197876,-3.98441958427429
292,788648222,109.30541992187500,53.48063659667969,-55.55740356445312,-9.53165531158447,5.18933153152466,-1.76465964317322,56.84867858886719,-6.96561956405640,-0.97709625959396
293,788656555,109.68267822265625,53.47630691528320,-55.67005538940430,-8.83724594116211,5.57992315292358,-2.12950611114502,55.76499938964844,-7.34301853179932,1.53104364871979
294,788664888,109.94708251953125,53.61875152587891,-55.92853164672852,-8.14472770690918,6.49699449539185,-1.59656584262848,59.64553451538086,-9.54708480834961,7.03067016601562
295,788673221,110.29064941406250,53.55222702026367,-56.15230560302734,-7.57424449920654,6.59025669097900,-1.06583523750305,62.46351623535156,-12.14299869537354,11.34661102294922
296,788681554,110.49856567382812,53.63736343383789,-56.57549667358398,-7.32856655120850,6.81510782241821,-0.73349362611771,68.97833251953125,-18.16830253601074,16.90906143188477
297,788689887,110.78368377685547,53.54355239868164,-56.98461532592773,-6.92084264755249,6.38424444198608,-1.04108381271362,73.35150146484375,-23.21631622314453,19.18298912048340
298,788698220,110.94873046875000,53.60161590576172,-57.56803131103516,-6.88999032974243,6.13033437728882,-1.19592642784119,79.59746551513672,-27.56331825256348,23.26403045654297
299,788706553,111.18823242187500,53.46707153320312,-58.15291595458984,-7.42422008514404,6.32884407043457,-0.69274890422821,84.81259918212891,-33.02510070800781,28.45306205749512
300,788714886,111.40468597412109,53.33986282348633,-58.78233718872070,-7.68750476837158,6.09874439239502,-1.00371551513672,86.24462127685547,-36.34450912475586,28.93485069274902
301,788723219,111.47211456298828,53.37751007080078,-59.56190872192383,-7.79344272613525,6.25445032119751,-1.60400569438934,87.11865997314453,-39.51797485351562,30.02690887451172
302,788731552,111.52464294433594,53.40049743652344,-60.36805343627930,-7.77415800094604,6.50885009765625,-2.05614542961121,88.10739898681641,-40.70332717895508,31.66476440429688
303,788739885,111.66728973388672,53.26292037963867,-61.10473251342773,-7.71420383453369,6.55890083312988,-1.95779597759247,87.65164184570312,-42.89577865600586,33.19136428833008
304,788748218,111.77923583984375,53.13061523437500,-61.88723754882812,-7.68992710113525,6.17614555358887,-1.89673447608948,88.24263000488281,-46.29504394531250,33.94503402709961
305,788756551,111.75753784179688,53.16113662719727,-62.79255294799805,-7.26577997207642,5.77697753906250,-2.06419205665588,88.91717529296875,-47.73588943481445,32.72122573852539
306,788764884,111.75360870361328,53.18455123901367,-63.68320846557617,-7.15980243682861,6.01537132263184,-1.71174144744873,89.76944732666016,-46.65491104125977,32.40458297729492
307,788773217,111.87303924560547,53.08050155639648,-64.45442962646484,-7.36618804931641,5.77484750747681,-1.84469985961914,88.00248718261719,-46.77810287475586,30.65892028808594
308,788781550,111.96725463867188,52.99841690063477,-65.26243591308594,-7.41440677642822,5.49102020263672,-2.11375021934509,88.41471862792969,-50.30402755737305,29.30430603027344
309,788789883,111.89241790771484,53.06638717651367,-66.20986175537109,-7.25711584091187,5.09870338439941,-2.58843684196472,86.93616485595703,-52.47937774658203,28.19132614135742
310,788798216,111.80838775634766,53.13224029541016,-67.17277526855469,-6.95984411239624,4.95673418045044,-2.60106801986694,87.39985656738281,-53.65620040893555,28.16054344177246
311,788806549,111.85801696777344,53.07064056396484,-68.00418853759766,-6.82194805145264,4.52983570098877,-2.79642391204834,85.37192535400391,-52.70644378662109,27.59443283081055
312,788814882,111.92619323730469,53.01526260375977,-68.83131408691406,-6.76320505142212,4.38863611221313,-2.91690111160278,87.12425231933594,-52.76805496215820,26.83770179748535
313,788823215,111.86240386962891,53.08243560791016,-69.77122497558594,-6.73046875000000,4.06052207946777,-3.23051333427429,87.76724243164062,-52.33013153076172,26.61952400207520
314,788831548,111.84044647216797,53.13861465454102,-70.71923828125000,-6.76060152053833,3.81514215469360,-3.71908640861511,93.46903991699219,-52.72602462768555,27.54917526245117
315,788839881,111.99111938476562,53.06977844238281,-71.55044555664062,-6.93503236770630,4.04315328598022,-3.60493659973145,97.48302459716797,-52.30575180053711,28.48981285095215
316,788848214,112.15453338623047,53.00045394897461,-72.38381195068359,-7.13529014587402,4.22109222412109,-3.68658900260925,99.14484405517578,-52.45927810668945,28.75052452087402
317,788856547,112.18480682373047,53.05537033081055,-73.34115600585938,-7.21498823165894,4.56800842285156,-3.70665192604065,100.55007934570312,-53.51227951049805,27.60358810424805
318,788864880,112.22076416015625,53.11785888671875,-74.29333496093750,-7.12240743637085,4.78260660171509,-3.71913862228394,100.58712005615234,-53.87862014770508,26.24164009094238
319,788873213,112.38478088378906,53.08442306518555,-75.13513946533203,-7.13960552215576,5.01248311996460,-3.56221032142639,100.10445404052734,-54.41024780273438,25.22953033447266
320,788881546,112.53631591796875,53.05580520629883,-75.99403381347656,-7.19585895538330,4.80880403518677,-3.48756217956543,100.20667266845703,-55.75944519042969,25.29779434204102
321,788889879,112.52333068847656,53.13331985473633,-76.99295806884766,-7.26822519302368,5.03684473037720,-3.29402303695679,99.25604248046875,-57.77360153198242,25.42248725891113
322,788898212,112.49404144287109,53.21027755737305,-78.00970458984375,-7.22640609741211,4.98554277420044,-3.45993351936340,98.95594024658203,-59.23731613159180,25.49295425415039
323,788906545,112.57048034667969,53.19931030273438,-78.93811798095703,-7.32602357864380,5.45313978195190,-3.09817337989807,98.01659393310547,-60.93403625488281,25.30121040344238
324,788914878,112.60346984863281,53.19394683837891,-79.90375518798828,-7.46247482299805,5.59471082687378,-3.02349305152893,96.37287902832031,-63.67303085327148,25.74090576171875
325,788923211,112.45327758789062,53.27574539184570,-81.05564880371094,-7.72971773147583,6.20418643951416,-2.74669075012207,97.61001586914062,-68.52304840087891,27.86266136169434
326,788931544,112.20832061767578,53.35820770263672,-82.28802490234375,-8.07792091369629,6.44595050811768,-2.66934442520142,94.05808258056641,-74.17470550537109,29.16959762573242
327,788939877,111.99443817138672,53.39503097534180,-83.50621795654297,-8.13345146179199,5.96433830261230,-3.12336277961731,91.29355621337891,-82.24911499023438,27.25159835815430
328,788948210,111.76147460937500,53.47140884399414,-84.72683715820312,-7.32991313934326,5.62637519836426,-3.92630982398987,89.32478332519531,-84.20580291748047,22.51529502868652
329,788956543,111.46274566650391,53.63348770141602,-85.96868896484375,-6.42325973510742,5.84757947921753,-4.45181751251221,89.04563903808594,-78.34084320068359,18.47080039978027
330,788964876,111.18955230712891,53.78099441528320,-87.12685394287109,-6.43876218795776,5.77178859710693,-4.43950271606445,84.03348541259766,-72.50681304931641,16.90492820739746
331,788973209,110.99932098388672,53.86828613281250,-88.20758819580078,-6.71538400650024,4.93139600753784,-4.69498682022095,81.49348449707031,-74.96651458740234,16.32913780212402
332,788981542,110.83514404296875,53.96587753295898,-89.28554534912109,-6.44779729843140,4.98717355728149,-4.44990301132202,84.47132873535156,-75.13816833496094,14.78261756896973
333,788989875,110.55327606201172,54.12611770629883,-90.45236968994141,-6.55624866485596,5.61688184738159,-3.84015679359436,84.19667816162109,-73.64441680908203,13.82376003265381
334,788998208,110.26284790039062,54.28129959106445,-91.62516021728516,-6.75101804733276,5.52686595916748,-3.89093041419983,83.72151184082031,-74.16015625000000,13.61446380615234
335,789006541,110.08586883544922,54.38095855712891,-92.73605346679688,-6.87989139556885,5.40872573852539,-3.59397101402283,86.70726776123047,-76.84980773925781,14.15425109863281
336,789014874,109.87908935546875,54.48747634887695,-93.84762573242188,-7.00710248947144,5.44793415069580,-3.46412062644958,83.32672882080078,-77.06531524658203,13.04308509826660
337,789023207,109.48874664306641,54.64947891235352,-95.11577606201172,-7.13218641281128,4.96138763427734,-3.67309474945068,81.49510955810547,-80.53446197509766,13.11913681030273
338,789031540,109.05444335937500,54.81878662109375,-96.44271850585938,-6.93650436401367,4.59603977203369,-4.08703279495239,82.01679992675781,-84.87844848632812,12.57058525085449
339,789039873,108.70693206787109,54.94792175292969,-97.72024536132812,-6.83955240249634,4.36882448196411,-4.30962467193604,83.34246063232422,-88.21096038818359,12.45827484130859
340,789048206,108.34621429443359,55.07696914672852,-99.02515411376953,-6.77303075790405,4.21559572219849,-4.35951709747314,84.64202880859375,-89.82519531250000,12.40640926361084
341,789056539,107.84721374511719,55.25040817260742,-100.47148132324219,-6.97213268280029,4.39048528671265,-3.87624430656433,86.51123046875000,-92.56604766845703,11.94046401977539
342,789064872,107.32437133789062,55.42502593994141,-101.97068023681641,-7.26279878616333,4.38817787170410,-3.42519569396973,88.86416625976562,-96.26598358154297,11.68704414367676
343,789073205,106.88948059082031,55.56159210205078,-103.43910980224609,-7.65922260284424,4.49921226501465,-3.16117119789124,92.65570068359375,-99.97210693359375,12.29261398315430
344,789081538,106.43553924560547,55.70334243774414,-104.94627380371094,-7.94561052322388,4.51235246658325,-3.36261391639709,94.45390319824219,-102.44682312011719,11.55205154418945
345,789089871,105.85465240478516,55.88253021240234,-106.58317565917969,-8.09973907470703,4.37929105758667,-3.57043218612671,96.25501251220703,-104.80320739746094,10.39122772216797
346,789098204,105.26098632812500,56.06637573242188,-108.24665069580078,-7.94979524612427,4.19465255737305,-3.85711693763733,97.43419647216797,-106.67816925048828,8.94577026367188
347,789106537,104.78081512451172,56.21418380737305,-109.83209228515625,-7.76578712463379,4.35799932479858,-3.84624028205872,100.00180816650391,-106.71303558349609,8.94703006744385
348,789114870,104.29771423339844,56.35195541381836,-111.41825866699219,-7.93723583221436,4.42233991622925,-3.94987463951111,99.98690795898438,-106.17279052734375,9.10732555389404
349,789123203,103.68685150146484,56.51668930053711,-113.11444854736328,-8.18366336822510,4.49704265594482,-4.18734836578369,99.32018280029297,-107.56630706787109,7.93775749206543
350,789131536,103.03937530517578,56.69814682006836,-114.84724426269531,-8.07144737243652,4.28619527816772,-4.69882822036743,98.63247680664062,-110.47815704345703,5.10346651077271
351,789139869,102.47711181640625,56.87145996093750,-116.51621246337891,-7.55867385864258,4.20215082168579,-5.03966617584229,99.72132873535156,-111.32227325439453,2.56092309951782
352,789148202,101.82615661621094,57.05985641479492,-118.28170776367188,-7.17472124099731,4.29727315902710,-5.18036365509033,101.85811614990234,-112.36228179931641,1.88172376155853
353,789156535,101.27111816406250,57.22326278686523,-119.97660827636719,-7.13948774337769,4.39710998535156,-5.14155244827271,103.88343811035156,-111.77074432373047,1.50190877914429
354,789164868,100.62092590332031,57.37704467773438,-121.79265594482422,-7.66039657592773,4.94346523284912,-4.54570913314819,107.34425354003906,-114.44039154052734,3.68595552444458
355,789173201,99.96131134033203,57.49004364013672,-123.66429138183594,-8.22595977783203,5.06116628646851,-4.49422121047974,109.76126861572266,-121.10066223144531,6.87946701049805
356,789181534,99.11997985839844,57.58908081054688,-125.74909973144531,-8.73321628570557,5.10624122619629,-4.16974782943726,111.83470153808594,-130.31190490722656,9.76582241058350
357,789189867,98.23312377929688,57.66664505004883,-127.89939117431641,-9.13985538482666,4.80833339691162,-4.09768152236938,111.15086364746094,-137.70234680175781,10.26914501190186
358,789198200,97.24051666259766,57.76547241210938,-130.15032958984375,-9.32297039031982,4.46759700775146,-4.46449899673462,110.65362548828125,-140.97816467285156,6.78679895401001
359,789206533,96.24763488769531,57.86854553222656,-132.41035461425781,-9.51477146148682,4.58690738677979,-4.32918882369995,110.02568817138672,-144.62234497070312,3.31023669242859
360,789214866,95.15702819824219,58.00775146484375,-134.71463012695312,-9.65997314453125,3.93013429641724,-4.57543277740479,104.55949401855469,-144.69192504882812,-2.92159056663513
361,789223199,94.05957794189453,58.17172622680664,-137.03800964355469,-10.01025199890137,3.79562664031982,-4.46832609176636,104.62467193603516,-148.19955444335938,-9.13540172576904
362,789231532,92.83676910400391,58.36899566650391,-139.48750305175781,-10.07456779479980,3.97404503822327,-4.46355342864990,104.01328277587891,-153.26142883300781,-15.06267929077148
363,789239865,91.55099487304688,58.55745315551758,-142.02774047851562,-10.34704589843750,3.55007910728455,-4.57379150390625,105.15478515625000,-159.90773010253906,-17.85859298706055
364,789248198,90.18521881103516,58.75674438476562,-144.68367004394531,-10.35450744628906,3.38922023773193,-4.96147584915161,108.71290588378906,-164.22566223144531,-21.92774772644043
365,789256531,88.76822662353516,58.92389297485352,-147.41580200195312,-10.34928989410400,4.15304327011108,-5.16607284545898,110.15462493896484,-169.16891479492188,-22.96896553039551
366,789264864,87.24475097656250,59.07572174072266,-150.27299499511719,-10.25924110412598,3.87734532356262,-6.17415332794189,111.10081481933594,-174.60194396972656,-24.66040611267090
367,789273197,85.66222381591797,59.17025756835938,-153.26194763183594,-10.39974212646484,4.38776540756226,-6.08091306686401,117.58518981933594,-182.73460388183594,-24.06756210327148
368,789281530,84.01903533935547,59.22319030761719,-156.34837341308594,-11.04660892486572,3.98061251640320,-6.03845930099487,120.56446838378906,-187.90216064453125,-23.50177192687988
369,789289863,82.35997772216797,59.22597122192383,-159.57452392578125,-11.88457012176514,3.95073771476746,-5.83786201477051,133.18489074707031,-196.36965942382812,-25.18943214416504
370,789298196,80.66416931152344,59.19133377075195,-162.92977905273438,-12.73416233062744,4.43120288848877,-5.67733240127563,141.64630126953125,-204.85748291015625,-26.09763145446777
371,789306529,78.88868713378906,59.10552597045898,-166.47056579589844,-13.64827442169189,3.92505168914795,-6.46350097656250,151.36071777343750,-215.97578430175781,-29.91139602661133
372,789314862,77.01620483398438,58.99427032470703,-170.17823791503906,-14.37651634216309,5.37120389938354,-6.46940040588379,155.80392456054688,-227.80702209472656,-34.03008651733398
373,789323195,74.96977233886719,58.81855010986328,-174.08375549316406,-14.46068954467773,5.47115659713745,-8.21310615539551,155.41534423828125,-239.65513610839844,-39.49876403808594
374,789331528,72.82168579101562,58.59715652465820,-178.10916137695312,-14.26373386383057,6.69713783264160,-8.18895339965820,153.60017395019531,-250.73780822753906,-42.96615219116211
375,789339861,70.47976684570312,58.29217529296875,177.72319030761719,-14.56828689575195,5.90322923660278,-9.51879310607910,144.80065917968750,-259.64260864257812,-49.04465103149414
376,789348194,68.06626129150391,57.90544128417969,173.44163513183594,-14.07938671112061,7.10035896301270,-9.60716533660889,144.75184631347656,-273.97409057617188,-51.21878433227539
377,789356527,65.43610382080078,57.26077270507812,168.94738769531250,-14.90214347839355,8.23467254638672,-10.24198246002197,139.33084106445312,-295.85949707031250,-44.45884323120117
378,789364860,62.64782714843750,56.12247467041016,164.15748596191406,-16.53051376342773,10.22717761993408,-9.52541255950928,143.58465576171875,-348.65042114257812,-13.65463733673096
379,789373193,59.98141860961914,54.49636840820312,159.20901489257812,-13.99202919006348,8.65943813323975,-12.54866981506348,168.02386474609375,-389.79577636718750,7.45140457153320
380,789381526,57.65223312377930,52.86186981201172,154.53846740722656,-9.11068153381348,12.30402755737305,-8.32849693298340,169.31831359863281,-392.24865722656250,-2.10741710662842
381,789389859,55.58954238891602,51.16401290893555,149.93772888183594,-5.41516351699829,9.52046394348145,-7.56121206283569,187.32427978515625,-395.51147460937500,-18.32298660278320
382,789398192,54.12491607666016,49.73522567749023,145.87886047363281,-0.13071157038212,6.88391256332397,-4.43206071853638,196.62480163574219,-360.01577758789062,-36.51898574829102
383,789406525,52.49451828002930,48.22085952758789,141.99147033691406,-3.68907332420349,6.23204374313354,-3.61303091049194,155.98989868164062,-353.79794311523438,-38.70039367675781
384,789414858,50.94950866699219,46.92915344238281,138.31816101074219,-3.38546562194824,6.99357843399048,-1.75653851032257,136.73469543457031,-337.45065307617188,-60.75288772583008
385,789423191,49.71886062622070,45.78651046752930,134.87139892578125,-2.39189028739929,8.77344226837158,-3.33516287803650,151.30915832519531,-306.98706054687500,-78.13056182861328
386,789431524,48.59273147583008,44.72176361083984,131.59706115722656,-4.74353742599487,8.35513401031494,-0.47212448716164,140.65800476074219,-301.01443481445312,-82.58386993408203
387,789439857,47.26925277709961,43.74625015258789,128.27217102050781,-1.52562510967255,-0.98974442481995,0.84108489751816,119.18725585937500,-290.38085937500000,-106.11426544189453
388,789448190,46.31175994873047,42.94522476196289,125.12794494628906,6.47667312622070,-2.66866612434387,-0.49228057265282,141.17835998535156,-273.94149780273438,-115.81569671630859
389,789456523,45.76453781127930,41.97903823852539,122.31579589843750,5.59482192993164,8.68751049041748,1.46784174442291,161.81289672851562,-259.42868041992188,-90.84181213378906
390,789464856,45.57942199707031,40.96720886230469,119.85117340087891,-0.36605739593506,12.69816303253174,4.13089132308960,171.09999084472656,-250.73190307617188,-66.24847412109375
391,789473189,45.41317749023438,39.92614364624023,117.49330902099609,-0.50730615854263,10.13432121276855,3.91112709045410,163.26460266113281,-240.89312744140625,-63.31614303588867
392,789481522,45.27148437500000,38.97957992553711,115.33920288085938,-0.74674582481384,11.46441745758057,4.63299083709717,144.58778381347656,-228.54945373535156,-58.32080841064453
393,789489855,45.07116699218750,38.04810714721680,113.25778198242188,-0.84594929218292,11.81681632995605,4.24674367904663,131.15496826171875,-217.16468811035156,-59.99386978149414
394,789498188,44.75599670410156,37.26465988159180,111.26413726806641,0.27239176630974,10.94277381896973,4.25467586517334,105.48602294921875,-206.46894836425781,-67.16222381591797
395,789506521,44.36961746215820,36.52414703369141,109.31151580810547,0.61365962028503,9.96947574615479,3.90600037574768,93.96698760986328,-194.55615234375000,-72.65075683593750
396,789514854,44.09078216552734,35.86767959594727,107.48233032226562,0.65615874528885,10.99228000640869,6.12400865554810,93.13585662841797,-185.61167907714844,-71.97678375244141
397,789523187,43.74518966674805,35.27946472167969,105.72373962402344,0.33354753255844,9.86010837554932,5.26004981994629,80.96139526367188,-169.65632629394531,-76.17813873291016
398,789531520,43.45570373535156,34.74110031127930,104.07213592529297,0.44303253293037,9.66078281402588,5.31438589096069,78.62180328369141,-158.48674011230469,-74.46878814697266
399,789539853,43.25444793701172,34.26107025146484,102.52574157714844,0.21858091652393,10.11709785461426,5.98519229888916,77.88480377197266,-151.84100341796875,-72.12244415283203
400,789548186,43.07789993286133,33.79154586791992,101.03533172607422,0.14341035485268,10.96629238128662,6.25697040557861,75.59201812744141,-146.88235473632812,-70.66519927978516
401,789556519,42.84342956542969,33.33008956909180,99.53960418701172,-1.07065844535828,10.84078502655029,6.04434108734131,70.76107025146484,-142.19714355468750,-73.21788787841797
402,789564852,42.55754852294922,32.87619400024414,98.05021667480469,-1.19560813903809,11.09865283966064,6.22408723831177,62.96592330932617,-141.31324768066406,-74.57212066650391
403,789573185,42.20808792114258,32.48461151123047,96.63965606689453,-0.56962943077087,11.11017036437988,6.43973922729492,45.96426773071289,-134.61462402343750,-75.05950927734375
404,789581518,41.78881072998047,32.13611984252930,95.28924560546875,-0.04698439687490,9.84781265258789,6.81063270568848,32.48230361938477,-126.09710693359375,-75.86394500732422
405,789589851,41.31804275512695,31.78891944885254,93.94831085205078,-0.70508903264999,8.77204036712646,7.24283170700073,28.36887550354004,-121.46542358398438,-76.02506256103516
406,789598184,40.86774063110352,31.48560905456543,92.65267181396484,-1.36330747604370,7.67084884643555,6.32364845275879,27.18423080444336,-114.18273162841797,-77.32971191406250
407,789606517,40.53533554077148,31.22413253784180,91.41536712646484,-2.13193202018738,6.96589803695679,7.05400896072388,33.45305252075195,-109.35610198974609,-78.02983856201172
408,789614850,40.32988357543945,30.98213386535645,90.22858428955078,-2.80990648269653,5.80206584930420,6.36100864410400,44.94757461547852,-103.70619201660156,-76.55261993408203
409,789623183,40.21826934814453,30.74450492858887,89.08019256591797,-2.59887337684631,6.82005119323730,6.76938676834106,56.98647689819336,-97.94903564453125,-73.31840515136719
410,789631516,40.22227859497070,30.54617309570312,87.99272918701172,-2.50006103515625,7.67550945281982,7.54726457595825,66.67204284667969,-90.40537261962891,-71.85237884521484
411,789639849,40.32690429687500,30.41553878784180,87.00146484375000,-2.27495431900024,7.74060535430908,6.24498271942139,69.01113128662109,-80.57470703125000,-70.61402893066406
412,789648182,40.46760940551758,30.32379913330078,86.07576751708984,-2.47589731216431,8.06437778472900,5.76074981689453,69.07865905761719,-72.54296112060547,-68.55680084228516
413,789656515,40.60056304931641,30.23551940917969,85.18268585205078,-2.72278738021851,8.63725757598877,6.39421176910400,69.68263244628906,-67.91133880615234,-64.95358276367188
414,789664848,40.77291870117188,30.13310432434082,84.33213043212891,-3.10035657882690,8.61452102661133,7.35918998718262,71.68246459960938,-66.56363677978516,-60.38713836669922
415,789673181,41.06616592407227,30.00376129150391,83.55395507812500,-3.32881212234497,9.53048038482666,8.78032207489014,77.87115478515625,-66.56050109863281,-53.70103073120117
416,789681514,41.44007492065430,29.79560852050781,82.82125854492188,-4.09362745285034,10.03932952880859,10.20121955871582,84.50003051757812,-70.66572570800781,-43.84196853637695
417,789689847,41.78734207153320,29.50791740417480,82.08455657958984,-4.51215648651123,9.65797901153564,10.11676788330078,85.10700988769531,-76.53300476074219,-36.00838470458984
418,789698180,42.13224029541016,29.17356491088867,81.36831665039062,-4.25270223617554,9.27665138244629,9.01256752014160,83.19103240966797,-79.64648437500000,-30.38303565979004
419,789706513,42.53405380249023,28.81852531433105,80.70957946777344,-3.74296021461487,9.10296058654785,9.16286182403564,82.32025909423828,-79.40139770507812,-25.41415977478027
420,789714846,42.95062637329102,28.48461341857910,80.08943939208984,-4.05340862274170,8.92895793914795,9.37919235229492,81.43664550781250,-74.83737945556641,-23.88305664062500
421,789723179,43.34128189086914,28.21126174926758,79.48980712890625,-5.03590583801270,8.46151065826416,8.97424221038818,80.74825286865234,-66.93034362792969,-25.25955390930176
422,789731512,43.78683471679688,27.98332214355469,78.94877624511719,-5.89469003677368,7.42271566390991,9.30218601226807,83.73706054687500,-58.99614715576172,-24.14385414123535
423,789739845,44.38244628906250,27.76524925231934,78.46038055419922,-6.47036743164062,6.27939748764038,10.78594493865967,94.68499755859375,-55.76382827758789,-22.05456161499023
424,789748178,45.09678268432617,27.56119537353516,77.98023986816406,-6.55932378768921,5.60121774673462,12.31735801696777,108.55867767333984,-54.15723419189453,-21.88926887512207
425,789756511,45.86948013305664,27.38674736022949,77.47840118408203,-6.64808750152588,6.21982765197754,12.64698028564453,120.21619415283203,-52.45609283447266,-24.02053642272949
426,789764844,46.66202545166016,27.22607994079590,76.94492340087891,-6.49342679977417,7.06279039382935,11.48598670959473,124.17471313476562,-54.12757492065430,-26.88671302795410
427,789773177,47.46924209594727,27.10809516906738,76.39449310302734,-6.01414918899536,6.94543027877808,9.71846294403076,123.65777587890625,-53.37891387939453,-32.17757797241211
428,789781510,48.27871322631836,27.07225418090820,75.84679412841797,-5.71602344512939,6.75604152679443,7.90480947494507,124.06909179687500,-46.91474151611328,-38.41966247558594
429,789789843,49.03801727294922,27.13344383239746,75.27861785888672,-6.29848384857178,7.01364421844482,6.92879152297974,121.88977050781250,-40.39354705810547,-47.09177780151367
430,789798176,49.75388717651367,27.31072616577148,74.67878723144531,-7.36180734634399,7.25981235504150,6.91995716094971,118.53704833984375,-34.43533325195312,-59.29773712158203
431,789806509,50.44157409667969,27.62557220458984,74.04428100585938,-8.05575084686279,7.61553144454956,7.49018955230713,114.82198333740234,-28.31038856506348,-74.46788024902344
432,789814842,51.14033126831055,28.01368713378906,73.32015228271484,-8.80194282531738,7.59184885025024,8.03875446319580,121.71962738037109,-30.97057533264160,-86.57434082031250
433,789823175,52.04413604736328,28.37757682800293,72.46453094482422,-9.20887756347656,7.88611888885498,8.33739376068115,156.68162536621094,-43.45244979858398,-91.92485809326172
434,789831508,53.17145156860352,28.65214538574219,71.48828887939453,-9.53008747100830,8.32662487030029,7.98520231246948,190.91328430175781,-61.45846557617188,-90.18010711669922
435,789839841,54.18933105468750,28.75443077087402,70.35582733154297,-9.40850257873535,7.16782331466675,6.42113971710205,185.01676940917969,-89.86806488037109,-81.98325347900391
436,789848174,55.12458801269531,28.94367218017578,69.26548767089844,-5.48983192443848,3.70764017105103,1.10705888271332,173.14768981933594,-81.61754608154297,-85.93670654296875
437,789856507,56.20793533325195,29.25185966491699,68.29287719726562,-5.09663248062134,1.42593538761139,-1.51558542251587,186.47737121582031,-63.02265548706055,-89.55130767822266
438,789864840,57.30226898193359,29.56328201293945,67.25331115722656,-8.02415370941162,-0.69123798608780,-1.04852044582367,192.28712463378906,-70.07884979248047,-92.32452392578125
439,789873173,58.54173660278320,29.93529510498047,66.14717102050781,-11.42058753967285,-1.98055219650269,-0.06533588469028,212.40341186523438,-75.52989196777344,-99.72109985351562
440,789881506,59.80233001708984,30.26163864135742,64.79541015625000,-14.87332439422607,-1.32476484775543,0.11224707961082,230.59762573242188,-102.57611846923828,-105.38909912109375
441,789889839,61.04109954833984,30.42423820495605,63.19408416748047,-16.30949974060059,0.32616189122200,-0.88718485832214,245.44859313964844,-134.26161193847656,-100.32819366455078
442,789898172,62.45891189575195,30.50825309753418,61.44628906250000,-12.91055774688721,0.84645557403564,-2.35267233848572,276.19390869140625,-154.15254211425781,-95.94129943847656
443,789906505,64.09137725830078,30.68059539794922,59.62740325927734,-8.57873630523682,-0.92039084434509,-3.07621097564697,305.39047241210938,-161.23387145996094,-101.27542877197266
444,789914838,65.76259613037109,31.02692604064941,57.70063400268555,-3.97584724426270,-3.31374382972717,-3.44834470748901,317.54513549804688,-165.33712768554688,-119.14153289794922
445,789923171,68.01187896728516,31.55973243713379,55.88241195678711,-0.71405231952667,-0.33020853996277,-4.07734394073486,382.97009277343750,-146.05493164062500,-133.51451110839844
446,789931504,70.63461303710938,32.19918441772461,54.07283401489258,-3.66370630264282,-0.10330021381378,-3.60060858726501,427.95126342773438,-148.35147094726562,-133.69577026367188
447,789939837,73.56993865966797,32.88933944702148,52.38018798828125,-4.91485786437988,-0.87576550245285,-5.69940471649170,461.23797607421875,-137.15887451171875,-132.96456909179688
448,789948170,76.88002777099609,33.67146301269531,50.84143066406250,-5.74225711822510,0.43046820163727,-8.00434589385986,497.04592895507812,-127.90485382080078,-126.20957946777344
449,789956503,80.45999908447266,34.36760711669922,49.38676071166992,-5.84630107879639,4.34157419204712,-9.81527996063232,526.99938964843750,-125.12490081787109,-111.87586212158203
450,789964836,84.21523284912109,34.96700668334961,48.00852584838867,-6.24925851821899,11.07234668731689,-10.65595817565918,542.68621826171875,-127.40636444091797,-84.83501434326172
451,789973169,87.76962280273438,35.30510711669922,46.55610656738281,-6.99517774581909,17.72708702087402,-8.47222995758057,526.58477783203125,-139.01478576660156,-51.96662139892578
452,789981502,91.17048645019531,35.70586013793945,45.04199600219727,-6.44225120544434,15.11241245269775,-7.09052324295044,510.89379882812500,-149.11624145507812,-44.85629653930664
453,789989835,94.39817047119141,36.15015792846680,43.56430053710938,-2.19301080703735,11.37657356262207,-9.33886337280273,491.12612915039062,-145.66242980957031,-47.80440521240234
454,789998168,97.70526885986328,36.73919677734375,42.13935470581055,-3.78597021102905,8.67193412780762,-10.48307991027832,495.25128173828125,-145.33816528320312,-51.40037536621094
455,790006501,100.94783020019531,37.25795745849609,40.70974731445312,-5.06472015380859,3.33978223800659,-11.89320659637451,492.10272216796875,-144.93614196777344,-40.75126266479492
456,790014834,104.20275878906250,37.53760147094727,39.17097091674805,-14.94352245330811,11.59083557128906,-11.88703250885010,498.90466308593750,-151.16215515136719,3.73797345161438
457,790023167,107.17752075195312,37.70190811157227,37.15108108520508,-30.31992912292480,12.08174514770508,-14.17921638488770,504.68441772460938,-189.81419372558594,31.43062210083008
458,790031500,110.49889373779297,37.79932785034180,35.16503906250000,-43.26608276367188,9.69223976135254,-25.78457260131836,540.14300537109375,-181.97158813476562,55.47169494628906
459,790039833,113.57616424560547,37.85846328735352,32.47024536132812,-54.60597229003906,21.18865394592285,-22.24044036865234,567.34326171875000,-239.07373046875000,87.76599121093750
460,790048166,116.47009277343750,38.00443649291992,29.37368392944336,-49.87452697753906,23.47789955139160,-23.89365959167480,570.51092529296875,-271.24047851562500,116.43012237548828
461,790056499,119.35235595703125,38.14005279541016,26.06176757812500,-40.69688796997070,18.21726989746094,-27.36016273498535,590.68304443359375,-283.74563598632812,130.59725952148438
462,790064832,122.39527130126953,38.56385040283203,22.66387176513672,-35.67491531372070,13.97608566284180,-29.64569282531738,612.77886962890625,-296.56594848632812,130.32971191406250
463,790073165,125.55876922607422,39.28765487670898,19.16105651855469,-28.81534004211426,8.03842830657959,-32.91029739379883,643.45599365234375,-319.36135864257812,109.26668548583984
464,790081498,129.07302856445312,40.47933578491211,15.92684364318848,-19.01393127441406,-0.09777247905731,-37.66693115234375,664.62097167968750,-317.53210449218750,77.36742401123047
465,790089831,132.98222351074219,41.60861968994141,13.09138488769531,-15.07229995727539,0.78550791740417,-39.38452148437500,692.27795410156250,-282.18075561523438,64.75736999511719
466,790098164,137.25761413574219,42.56136322021484,10.55171394348145,-13.02396106719971,6.05851173400879,-39.18842697143555,709.84356689453125,-233.25852966308594,89.88249969482422
467,790106497,141.48562622070312,43.10203170776367,7.93808460235596,-9.27156829833984,9.66593265533447,-39.51728057861328,720.35595703125000,-198.60076904296875,130.87971496582031
468,790114830,146.01556396484375,43.61191558837891,5.31164169311523,-5.24546194076538,7.57947731018066,-40.77426528930664,751.78894042968750,-176.68537902832031,157.56147766113281
469,790123163,150.77102661132812,44.07021331787109,2.56732296943665,-4.10172986984253,6.03521347045898,-40.86267852783203,798.52679443359375,-170.90130615234375,172.07873535156250
470,790131496,155.45372009277344,44.91349411010742,-0.45072695612907,-4.19414758682251,9.01740455627441,-45.19760894775391,807.19927978515625,-198.78585815429688,191.80809020996094
471,790139829,160.35830688476562,45.97380065917969,-3.66183257102966,0.54554313421249,14.21059608459473,-39.40480804443359,862.85839843750000,-219.17178344726562,201.30776977539062
472,790148162,165.78424072265625,47.58970260620117,-6.69638776779175,4.16391229629517,16.81680679321289,-29.91012763977051,908.57818603515625,-250.41528320312500,187.20495605468750
473,790156495,170.94612121582031,49.59402847290039,-9.87865352630615,12.19309806823730,12.70045661926270,-26.23503494262695,905.54290771484375,-286.13281250000000,197.57405090332031
474,790164828,175.68998718261719,51.70434188842773,-13.18555736541748,22.26067161560059,8.12732219696045,-25.08676719665527,870.00744628906250,-274.04745483398438,223.42692565917969
475,790173161,-179.93827819824219,53.73398208618164,-16.93635940551758,22.80945968627930,3.14869928359985,-26.00380325317383,882.45800781250000,-253.03585815429688,262.13415527343750
476,790181494,-175.87086486816406,56.35486602783203,-21.43702316284180,19.31398963928223,5.16652345657349,-28.62577438354492,926.14379882812500,-298.26095581054688,322.74432373046875
477,790189827,-172.39271545410156,59.16175460815430,-26.48823738098145,21.65514564514160,10.99885272979736,-31.46617317199707,929.77008056640625,-301.43054199218750,354.86987304687500
478,790198160,-169.59933471679688,61.93837738037109,-32.03790283203125,20.69643402099609,11.15786361694336,-34.22366714477539,912.24108886718750,-275.47985839843750,376.86895751953125
479,790206493,-167.45268249511719,64.64780426025391,-38.17971038818359,15.51695632934570,5.28924369812012,-31.86835289001465,915.76733398437500,-252.01860046386719,387.95285034179688
480,790214826,-165.78204345703125,67.23551177978516,-44.71707534790039,10.28342247009277,1.59989571571350,-33.01966094970703,915.75231933593750,-228.41703796386719,384.35311889648438
481,790223159,-164.96644592285156,69.77915191650391,-51.89379119873047,8.79332923889160,2.44372248649597,-34.57171630859375,899.04016113281250,-214.81266784667969,380.91156005859375
482,790231492,-165.05384826660156,72.12808227539062,-59.79523849487305,10.15104770660400,2.05131530761719,-35.58295440673828,885.88244628906250,-194.91995239257812,374.01678466796875
483,790239825,-166.76948547363281,74.22399139404297,-69.19136047363281,12.51518440246582,1.91776442527771,-35.72006225585938,873.33612060546875,-163.40728759765625,376.04013061523438
484,790248158,-170.30525207519531,76.06184387207031,-80.28642272949219,15.59975337982178,1.31164574623108,-36.15996170043945,863.44714355468750,-153.12287902832031,381.79977416992188
485,790256491,-176.14862060546875,77.63000488281250,-93.79306793212891,20.21083641052246,0.74142289161682,-38.71949768066406,877.14099121093750,-141.80686950683594,386.31484985351562
486,790264824,176.14744567871094,78.59923553466797,-109.30574035644531,24.13847541809082,1.12384200096130,-41.59365844726562,898.59222412109375,-123.34400939941406,388.58227539062500
487,790273157,167.22984313964844,78.94600677490234,-126.23464202880859,25.69075012207031,1.25504422187805,-42.75946426391602,922.60412597656250,-97.31531524658203,382.86477661132812
488,790281490,159.63386535644531,78.60599517822266,-142.01141357421875,24.59780120849609,-0.77063202857971,-44.79856872558594,946.74597167968750,-76.22734069824219,372.73510742187500
489,790289823,153.27194213867188,77.91137695312500,-156.81518554687500,23.74001121520996,3.65667557716370,-48.17788696289062,975.88824462890625,-67.84811401367188,362.33905029296875
490,790298156,149.21188354492188,76.84748840332031,-169.47613525390625,23.82055854797363,8.57789134979248,-50.02707672119141,995.84039306640625,-59.77218246459961,363.78347778320312
491,790306489,145.94615173339844,75.51734161376953,178.38369750976562,21.15395545959473,10.73238468170166,-50.60735702514648,1022.74523925781250,-51.82115173339844,377.10974121093750
492,790314822,144.13337707519531,74.03618621826172,167.33854675292969,17.39243507385254,11.77321624755859,-49.69066238403320,1060.28283691406250,-66.30639648437500,401.15945434570312
493,790323155,142.29130554199219,72.50837707519531,155.83782958984375,15.69146442413330,12.30689620971680,-48.36592102050781,1100.60913085937500,-91.05529022216797,425.78811645507812
494,790331488,141.75517272949219,71.03166961669922,145.28173828125000,15.53470897674561,12.31787300109863,-49.05810546875000,1135.55895996093750,-115.54212951660156,437.99981689453125
495,790339821,141.46704101562500,69.62434387207031,134.73823547363281,17.74924278259277,13.10681247711182,-50.72567367553711,1156.71875000000000,-132.03166198730469,436.81381225585938
496,790348154,141.99720764160156,68.30251312255859,124.94538879394531,21.15242767333984,13.42090225219727,-52.11421966552734,1160.28808593750000,-136.58699035644531,427.73544311523438
497,790356487,143.70237731933594,67.16802978515625,116.29351806640625,23.07030868530273,12.60329627990723,-53.45365142822266,1160.07800292968750,-134.10256958007812,415.81182861328125
498,790364820,146.15963745117188,66.13779449462891,108.34047698974609,23.32500648498535,12.10038471221924,-55.69060134887695,1163.40795898437500,-122.35557556152344,400.23367309570312
499,790373153,148.69781494140625,65.13471221923828,100.46265411376953,23.37365341186523,13.65803527832031,-57.61320877075195,1165.55615234375000,-108.22232818603516,391.95291137695312
500,790381486,151.61154174804688,64.18825531005859,92.92411804199219,24.01285552978516,16.58569335937500,-58.17035675048828,1167.02111816406250,-93.88971710205078,390.92364501953125
501,790389819,155.13589477539062,63.41020584106445,85.93451690673828,24.72212791442871,19.35011863708496,-57.88131332397461,1165.54040527343750,-81.79745483398438,392.88729858398438
502,790398152,158.79234313964844,62.67056655883789,79.08672332763672,24.97228431701660,21.54993820190430,-56.75830459594727,1159.18200683593750,-65.25368499755859,395.88873291015625
503,790406485,161.99314880371094,61.97504043579102,71.85986328125000,24.31626129150391,22.86569595336914,-56.55707931518555,1151.89880371093750,-56.13014984130859,406.09130859375000
504,790414818,164.97499084472656,61.46891784667969,64.31989288330078,23.59335899353027,23.43530654907227,-56.62040710449219,1154.41149902343750,-63.24861145019531,426.88119506835938
505,790423151,168.01394653320312,61.32280349731445,56.59979629516602,22.13084983825684,23.05409812927246,-55.67063522338867,1165.31091308593750,-81.89577484130859,451.32125854492188
506,790431484,170.74450683593750,61.53912353515625,48.36853790283203,18.87204551696777,21.62011337280273,-53.72100067138672,1182.08569335937500,-110.26626586914062,473.34857177734375
507,790439817,172.87461853027344,62.15542602539062,39.48439407348633,15.95969867706299,18.41290283203125,-52.17081069946289,1195.38867187500000,-144.18875122070312,486.02658081054688
508,790448150,174.69505310058594,63.18525314331055,30.30816841125488,14.86823368072510,14.99683856964111,-52.02996063232422,1196.50415039062500,-176.85881042480469,487.84866333007812
509,790456483,176.55776977539062,64.64447021484375,21.14320564270020,14.57683086395264,12.17913150787354,-52.67916870117188,1200.17211914062500,-204.47174072265625,480.25988769531250
510,790464816,178.17681884765625,66.39352416992188,11.84854984283447,16.13948631286621,9.69105720520020,-54.66231536865234,1199.43798828125000,-226.33631896972656,462.58471679687500
511,790473149,179.13191223144531,68.33233642578125,2.16534352302551,18.55686759948730,8.41289138793945,-57.71725463867188,1186.98132324218750,-241.98739624023438,440.24090576171875
512,790481482,179.50315856933594,70.46464538574219,-7.87139606475830,20.33691596984863,8.07358646392822,-60.82574081420898,1171.89428710937500,-259.70574951171875,419.20736694335938
513,790489815,179.36779785156250,72.67979431152344,-18.27331161499023,22.57442665100098,9.69375705718994,-63.48122787475586,1160.89160156250000,-263.23419189453125,401.10043334960938
514,790498148,178.07774353027344,74.78009033203125,-29.63557052612305,23.95617103576660,12.26647949218750,-63.66512680053711,1148.66247558593750,-258.46914672851562,385.46820068359375
515,790506481,174.54208374023438,76.73422241210938,-43.02251815795898,24.62955474853516,15.23959922790527,-61.83215713500977,1132.89855957031250,-257.52648925781250,377.50234985351562
516,790514814,168.12721252441406,78.40366363525391,-59.09085083007812,25.21339416503906,17.56490135192871,-59.20220565795898,1113.47302246093750,-258.16162109375000,378.04107666015625
517,790523147,158.65596008300781,79.61293029785156,-78.04512023925781,24.46504211425781,19.30368614196777,-55.48751449584961,1094.28320312500000,-260.93933105468750,383.04144287109375
518,790531480,146.22305297851562,80.11524963378906,-99.78582763671875,23.43705368041992,21.19594764709473,-51.72219085693359,1075.81811523437500,-268.91519165039062,387.25845336914062
519,790539813,132.55772399902344,79.77299499511719,-122.59263610839844,21.18210983276367,20.95238304138184,-47.69617080688477,1055.46911621093750,-278.21725463867188,385.51684570312500
520,790548146,120.82749938964844,78.66516876220703,-143.35316467285156,19.25321578979492,18.58827590942383,-45.64642333984375,1040.16040039062500,-293.25161743164062,380.67651367187500
521,790556479,112.72400665283203,77.11154937744141,-160.33563232421875,17.99921989440918,15.21429729461670,-43.26052856445312,1021.04815673828125,-303.21008300781250,367.91531372070312
522,790564812,107.69400787353516,75.33637237548828,-173.98756408691406,17.29555702209473,13.61892604827881,-41.85057830810547,988.41320800781250,-301.46774291992188,344.16873168945312
523,790573145,104.44165802001953,73.48237609863281,174.43235778808594,16.27719688415527,13.03276538848877,-41.66695404052734,948.26947021484375,-296.77621459960938,314.61761474609375
524,790581478,102.72163391113281,71.71660614013672,164.74038696289062,15.93179893493652,13.42074012756348,-40.65186309814453,903.38647460937500,-287.78717041015625,285.49829101562500
525,790589811,102.20043182373047,70.19284057617188,156.66645812988281,15.63052177429199,14.81671905517578,-37.97444152832031,853.89990234375000,-277.62982177734375,259.83694458007812
526,790598144,102.25475311279297,68.80977630615234,149.54609680175781,15.30170440673828,16.09929275512695,-34.22765731811523,806.36114501953125,-268.09695434570312,238.53266906738281
527,790606477,102.28961944580078,67.44792175292969,142.76266479492188,14.86181163787842,18.16553688049316,-29.52134132385254,759.51171875000000,-261.11022949218750,222.35948181152344
528,790614810,102.30131530761719,66.15797424316406,136.30801391601562,13.53485774993896,19.80006027221680,-24.93490600585938,713.23187255859375,-264.63510131835938,214.48934936523438
529,790623143,102.34501647949219,65.03222656250000,130.24617004394531,12.11461639404297,18.73367691040039,-20.93450736999512,666.41082763671875,-273.91601562500000,210.52612304687500
530,790631476,102.24489593505859,63.93643188476562,124.38996887207031,11.24798488616943,15.66836166381836,-17.93835258483887,619.59320068359375,-277.63565063476562,205.97573852539062
531,790639809,101.85318756103516,62.77949142456055,118.56758880615234,10.62617588043213,12.56575012207031,-15.87349605560303,577.41693115234375,-276.92599487304688,199.42317199707031
532,790648142,101.48622894287109,61.66248321533203,113.06868743896484,9.76836013793945,11.17658424377441,-15.00621032714844,539.67877197265625,-273.56231689453125,191.77478027343750
533,790656475,101.34609985351562,60.71643447875977,108.08473205566406,9.54988861083984,11.53028011322021,-13.77470302581787,504.42333984375000,-267.69030761718750,182.01026916503906
534,790664808,101.82225799560547,59.81752777099609,103.91628265380859,11.84794807434082,12.50469589233398,-13.46157646179199,487.80136108398438,-229.23226928710938,168.30903625488281
535,790673141,102.41410064697266,58.69907760620117,100.48087310791016,8.75473117828369,20.65058898925781,-6.52592658996582,425.23858642578125,-177.35877990722656,173.78153991699219
536,790681474,102.24940490722656,57.26975250244141,96.25676727294922,-8.06270217895508,29.44265174865723,0.19010800123215,409.93301391601562,-225.39750671386719,223.26553344726562
537,790689807,102.06053161621094,55.46649169921875,92.18174743652344,-21.88635635375977,39.01591491699219,2.50945353507996,380.36434936523438,-224.92691040039062,280.72439575195312
538,790698140,99.71572875976562,52.37017440795898,86.93691253662109,-78.65811920166016,73.58800506591797,15.84282112121582,223.66659545898438,-298.40216064453125,444.75619506835938
539,790706473,94.38157653808594,49.17509841918945,77.74314880371094,-109.21239471435547,77.03245544433594,-5.47561883926392,215.25265502929688,-644.66558837890625,463.39434814453125
540,790714806,88.68475341796875,48.34840774536133,71.01171112060547,-20.87175941467285,25.56142044067383,-18.52096939086914,-75.95922851562500,-528.96154785156250,111.62358856201172
541,790723139,85.08129119873047,47.59376907348633,65.71900177001953,-43.77116012573242,-5.81835603713989,-5.88153266906738,39.22209930419922,-431.88354492187500,77.60514068603516
542,790731472,82.63322448730469,46.52952194213867,61.08287429809570,-38.71613311767578,-20.52132797241211,-1.43602716922760,113.08010864257812,-393.82904052734375,98.52853393554688
543,790739805,79.89654541015625,44.74290847778320,56.44767761230469,-15.81893157958984,-6.58456563949585,12.65746879577637,69.28334808349609,-416.38916015625000,151.02975463867188
544,790748138,78.69841766357422,43.64875793457031,53.29777145385742,-5.51005744934082,-14.99603462219238,-9.64959430694580,121.99774932861328,-293.82687377929688,94.26051330566406
545,790756471,77.77573394775391,42.39744186401367,50.54834365844727,-14.69020748138428,-1.49178504943848,-12.95752048492432,114.31924438476562,-266.21743774414062,96.11161804199219
546,790764804,77.36390686035156,41.29599380493164,48.33461761474609,-16.93277168273926,12.59380626678467,-2.04011178016663,130.40527343750000,-225.34536743164062,103.63419342041016
547,790773137,77.51346588134766,40.01478195190430,46.33657073974609,-22.02695846557617,23.10730361938477,2.54042744636536,174.07643127441406,-210.44993591308594,108.79219818115234
548,790781470,77.50328063964844,38.84993743896484,44.47874450683594,-15.43838024139404,18.98274230957031,-6.08963060379028,143.65663146972656,-201.55924987792969,116.74119567871094
549,790789803,76.93433380126953,37.58680343627930,42.84536361694336,-9.14719486236572,14.08274364471436,-2.16750288009644,52.91435241699219,-183.17654418945312,112.03311157226562
550,790798136,76.19230651855469,36.57819747924805,41.33267211914062,-7.93618726730347,10.40525817871094,-3.52799344062805,23.63624000549316,-172.25897216796875,101.42376708984375
551,790806469,75.54998779296875,35.47409820556641,39.95341110229492,-7.43974924087524,8.34393501281738,-5.33179044723511,20.19760513305664,-161.60975646972656,94.08637237548828
552,790814802,75.15096282958984,34.55731964111328,38.68728256225586,-6.12120485305786,6.93486022949219,-4.78441810607910,42.53674316406250,-151.84757995605469,92.30348205566406
553,790823135,74.99192047119141,33.50566482543945,37.51256561279297,-4.35895442962646,8.18711566925049,-4.08853292465210,59.73617172241211,-144.84666442871094,90.11721801757812
554,790831468,75.00059509277344,32.61975097656250,36.37249374389648,-2.96118259429932,11.61905956268311,-2.85097765922546,78.80436706542969,-141.93470764160156,90.33553314208984
555,790839801,75.19066619873047,31.56202507019043,35.32655334472656,-3.30216598510742,14.95536231994629,-1.28745412826538,89.42411804199219,-134.85940551757812,93.57426452636719
556,790848134,75.37275695800781,30.66688346862793,34.33747482299805,-4.11547565460205,16.27510070800781,-0.70871937274933,86.23296356201172,-128.93898010253906,94.84645843505859
557,790856467,75.50432586669922,29.65508651733398,33.43611907958984,-3.79355597496033,17.30315971374512,-1.47528386116028,70.06928253173828,-120.49258422851562,92.26560974121094
558,790864800,75.47975158691406,28.86137771606445,32.62440490722656,-3.62330555915833,18.73315429687500,-2.08263516426086,47.52202987670898,-109.25074005126953,87.00771331787109
559,790873133,75.36169433593750,27.97167015075684,31.87108421325684,-4.07646131515503,19.21900177001953,0.28334623575211,28.79188346862793,-103.26571655273438,81.57289123535156
560,790881466,75.12820434570312,27.30922508239746,31.16991996765137,-4.57227230072021,17.22744369506836,1.63362240791321,13.55620002746582,-95.39408111572266,73.17322540283203
561,790889799,74.86782073974609,26.58666419982910,30.54775810241699,-3.72734570503235,16.15549850463867,2.40717339515686,2.53104519844055,-86.16937255859375,64.78025817871094
562,790898132,74.56627655029297,26.08126258850098,29.96054267883301,-2.01923203468323,17.04977035522461,3.17312645912170,-2.35695219039917,-79.91914367675781,56.54230880737305
563,790906465,74.23865509033203,25.53302192687988,29.43673896789551,-0.24858146905899,17.64161109924316,2.96446347236633,-12.00466251373291,-71.63084411621094,46.40179443359375
564,790914798,73.83332061767578,25.22320175170898,28.98249053955078,-0.06824482977390,17.11345672607422,2.70294260978699,-22.64411544799805,-60.48284912109375,35.89656066894531
565,790923131,73.36094665527344,24.89834976196289,28.59947967529297,-1.70639002323151,14.68403053283691,2.60007333755493,-37.27421569824219,-50.38478469848633,23.88171958923340
566,790931464,72.78799438476562,24.79604148864746,28.20694923400879,-3.37004947662354,12.20570087432861,3.98452520370483,-46.38509368896484,-47.37044906616211,12.07167911529541
567,790939797,72.22807312011719,24.65819549560547,27.82078552246094,-3.34985923767090,11.23635578155518,5.14474821090698,-47.85978698730469,-44.54975128173828,1.36584579944611
568,790948130,71.69993591308594,24.69590187072754,27.42117691040039,-2.59566020965576,11.52676773071289,5.80202960968018,-40.44684600830078,-43.00284957885742,-5.41081857681274
569,790956463,71.24338531494141,24.67590522766113,27.04965972900391,-2.14379811286926,10.26321792602539,2.48507332801819,-36.22056961059570,-38.60113525390625,-12.36153793334961
570,790964796,70.84250640869141,24.86207199096680,26.73627090454102,-1.51225483417511,9.33185958862305,0.62441545724869,-29.18511772155762,-28.00322341918945,-20.30110931396484
571,790973129,70.50830078125000,24.93991088867188,26.45212364196777,-1.85750138759613,9.39621067047119,3.55280256271362,-25.79885101318359,-25.52201080322266,-20.81587409973145
572,790981462,70.14493560791016,25.14767837524414,26.11962127685547,-1.84703826904297,10.11758804321289,5.47796487808228,-23.58475875854492,-28.59355354309082,-24.15193367004395
573,790989795,69.81519317626953,25.28801345825195,25.76849746704102,-1.40022790431976,10.39532661437988,4.00047731399536,-21.66303825378418,-29.47700691223145,-30.64443016052246
574,790998128,69.46308898925781,25.59031867980957,25.43602180480957,-0.76686728000641,10.90965843200684,2.28857350349426,-21.69157218933105,-23.95925521850586,-35.58863067626953
575,791006461,69.12957763671875,25.77570533752441,25.09866142272949,-1.84578323364258,10.89865112304688,4.76427745819092,-22.52223587036133,-25.68795585632324,-35.48221969604492
576,791014794,68.80262756347656,26.05299949645996,24.71012115478516,-2.09443807601929,9.91229438781738,6.17467498779297,-15.37683391571045,-29.86107444763184,-35.77928161621094
577,791023127,68.49714660644531,26.16638183593750,24.23784828186035,-3.57071137428284,9.52518272399902,6.61243391036987,-11.75953769683838,-41.86878967285156,-32.97681427001953
578,791031460,68.10017395019531,26.31406593322754,23.62958526611328,-3.83442187309265,8.90658092498779,7.60352182388306,-11.31675910949707,-56.71355819702148,-30.75699043273926
579,791039793,67.73822021484375,26.35987854003906,22.97688293457031,-3.78309655189514,7.48605203628540,8.32616901397705,-8.73043441772461,-62.40394973754883,-33.26186370849609
580,791048126,67.40984344482422,26.51560401916504,22.34622383117676,-3.41748332977295,6.84684276580811,8.62818622589111,-0.74807953834534,-57.68157577514648,-33.45200347900391
581,791056459,67.16212463378906,26.55953788757324,21.75439262390137,-3.58358979225159,6.60536098480225,7.63405942916870,1.96482372283936,-55.99913024902344,-31.17984390258789
582,791064792,66.91613769531250,26.63008308410645,21.18055725097656,-3.55628395080566,6.24008464813232,6.97064208984375,7.20951986312866,-55.21612930297852,-22.42374420166016
583,791073125,66.78266143798828,26.58715438842773,20.70840263366699,-3.64927244186401,7.09563732147217,7.76686477661133,9.32309150695801,-48.02853012084961,-16.96553802490234
584,791081458,66.59642791748047,26.60408020019531,20.21256446838379,-4.85228395462036,7.91310262680054,8.57893562316895,10.88453865051270,-49.54515457153320,-13.94061851501465
585,791089791,66.41807556152344,26.47782325744629,19.63410568237305,-6.03545141220093,7.82604026794434,9.08158016204834,9.57988643646240,-62.41790390014648,-12.64857292175293
586,791098124,66.11156463623047,26.40695762634277,18.93511390686035,-5.91402006149292,6.86532497406006,9.61646652221680,7.90001964569092,-73.33394622802734,-13.89000320434570
587,791106457,65.98637390136719,26.29007530212402,18.24532127380371,-5.06324863433838,5.32436561584473,9.79659748077393,21.68455314636230,-72.90882873535156,-19.08447647094727
588,791114790,65.91822052001953,26.31062889099121,17.54732704162598,-5.05728673934937,5.56415796279907,9.54237270355225,37.11787033081055,-68.31233215332031,-24.72997283935547
589,791123123,65.97186279296875,26.28205680847168,16.85449981689453,-4.92636585235596,5.55002689361572,8.75308418273926,43.24156188964844,-68.88656616210938,-29.04535865783691
590,791131456,66.03230285644531,26.30214881896973,16.15436744689941,-4.24567365646362,6.27233743667603,9.28091430664062,44.43228530883789,-67.25905609130859,-34.62379837036133
591,791139789,65.97721862792969,26.47180747985840,15.42764186859131,-4.03871107101440,7.12452936172485,9.32037162780762,41.09342193603516,-63.27098083496094,-42.87775802612305
592,791148122,65.89698791503906,26.67081260681152,14.65856266021729,-4.26108455657959,7.02228927612305,7.77732706069946,40.95812988281250,-65.37747192382812,-48.65030670166016
593,791156455,65.97003173828125,26.80373764038086,13.87803936004639,-4.41591882705688,7.04168653488159,6.09029102325439,50.87717819213867,-69.30223846435547,-50.47652816772461
594,791164788,66.05539703369141,26.93595695495605,13.04645633697510,-5.35251808166504,6.75728750228882,5.46983575820923,55.31417465209961,-74.30508422851562,-52.47623443603516
595,791173121,66.10099792480469,27.10550498962402,12.07438850402832,-6.19338369369507,5.92695474624634,4.65343809127808,67.87183380126953,-85.94270324707031,-54.83026504516602
596,791181454,66.25175476074219,27.24399375915527,11.01745033264160,-6.32004213333130,5.37586355209351,3.75010919570923,85.05672454833984,-95.54930877685547,-55.32696914672852
597,791189787,66.60479736328125,27.30863761901855,9.93365955352783,-6.66029119491577,4.72442483901978,2.32356119155884,101.94528961181641,-102.27980804443359,-55.14021682739258
598,791198120,67.08898925781250,27.33341407775879,8.78128910064697,-7.25885915756226,4.68769311904907,2.14707350730896,121.54738616943359,-111.22466278076172,-52.83775711059570
599,791206453,67.66056823730469,27.38805961608887,7.54877901077271,-7.92209577560425,5.23102331161499,3.02374649047852,145.27444458007812,-117.40280151367188,-51.74551391601562
600,791214786,68.52438354492188,27.47887420654297,6.30316162109375,-8.31599330902100,5.73533391952515,3.03761053085327,180.63969421386719,-117.70027923583984,-54.93696212768555
601,791223119,69.84015655517578,27.66191864013672,5.21766519546509,-7.64748811721802,6.79176044464111,4.01021766662598,218.16461181640625,-99.55990600585938,-63.37798309326172
602,791231452,71.49290466308594,28.08176994323730,4.51750230789185,-6.52391576766968,8.13961315155029,6.19967365264893,237.59078979492188,-52.83660507202148,-73.93500518798828
603,791239785,73.13610076904297,28.86492538452148,4.38741254806519,-8.03660869598389,9.34222698211670,6.60895109176636,212.28684997558594,17.46445274353027,-89.42524719238281
604,791248118,74.69416809082031,29.35549163818359,4.16679477691650,-17.72788810729980,11.66714859008789,6.15250730514526,207.22894287109375,-3.74874520301819,-59.04665756225586
605,791256451,75.43806457519531,29.23694610595703,2.94431543350220,-24.67930030822754,16.13297271728516,9.34012508392334,161.03570556640625,-126.71580505371094,-21.03340148925781
606,791264784,74.27958679199219,28.91928100585938,0.03260284662247,-24.22409057617188,15.65294551849365,-1.79344129562378,30.79555702209473,-304.15478515625000,-44.77592086791992
607,791273117,74.38465118408203,28.99692916870117,-2.46194052696228,-8.55933570861816,15.69108009338379,2.76030182838440,165.10174560546875,-247.27345275878906,-75.60021209716797
608,791281450,73.68546295166016,29.10369873046875,-5.37128114700317,-0.10990429669619,8.80215358734131,-0.33431017398834,92.28910064697266,-287.76986694335938,-92.16716003417969
609,791289783,73.07718658447266,29.15644836425781,-8.13145542144775,-0.64575600624084,0.60012114048004,-7.01673269271851,88.23963165283203,-274.86648559570312,-90.62201690673828
610,791298116,73.24168395996094,29.04216575622559,-11.01054668426514,-4.09197139739990,3.19862413406372,2.20274281501770,187.74316406250000,-292.35058593750000,-76.14460754394531
611,791306449,73.61940002441406,28.90403556823730,-14.06794261932373,-6.12068605422974,1.39631545543671,2.29754233360291,229.13720703125000,-310.08187866210938,-73.16158294677734
612,791314782,74.36665344238281,28.66157531738281,-17.18413543701172,-10.72694015502930,0.05775104463100,1.76421356201172,275.55902099609375,-320.71237182617188,-60.27568435668945
613,791323115,75.52915954589844,28.45793533325195,-20.10511970520020,-11.73551559448242,-0.21171420812607,-4.25050497055054,307.04620361328125,-303.10888671875000,-58.17329406738281
614,791331448,77.11026000976562,28.50953483581543,-22.59564971923828,-10.78427886962891,1.86704897880554,-10.87331581115723,332.23388671875000,-253.23054504394531,-69.95797729492188
615,791339781,79.02396392822266,28.77627372741699,-24.83919143676758,-10.48162746429443,5.67279624938965,-7.93900203704834,364.26971435546875,-221.91154479980469,-78.20172882080078
616,791348114,80.90360260009766,29.23243522644043,-27.08386802673340,-18.19672393798828,2.25486898422241,-7.21624469757080,360.30099487304688,-220.19396972656250,-92.64443206787109
617,791356447,82.76867675781250,30.00386428833008,-29.08959770202637,-19.92162513732910,-4.20491361618042,-18.57885932922363,342.73858642578125,-193.42944335937500,-123.16220855712891
618,791364780,84.91093444824219,30.93918037414551,-31.35936164855957,-20.34546852111816,0.43287628889084,-15.03807067871094,395.16052246093750,-220.82200622558594,-138.59683227539062
619,791373113,87.09870147705078,32.00308227539062,-33.90677261352539,-21.06139755249023,-1.16415333747864,-14.88595294952393,424.91372680664062,-248.76319885253906,-142.22798156738281
620,791381446,89.61657714843750,33.17212677001953,-36.46596527099609,-19.93319129943848,-2.04307270050049,-20.53033256530762,468.79418945312500,-252.50411987304688,-142.96411132812500
621,791389779,92.51006317138672,34.31572341918945,-38.94776916503906,-18.87304115295410,0.20523846149445,-24.76185035705566,512.60351562500000,-249.63850402832031,-134.43223571777344
622,791398112,95.68145751953125,35.39810943603516,-41.51510238647461,-19.86721801757812,3.56912851333618,-29.38593292236328,556.59570312500000,-260.93936157226562,-113.31511688232422
623,791406445,99.05397033691406,36.45742416381836,-44.32206344604492,-22.33636474609375,11.64778518676758,-29.41284561157227,602.06250000000000,-284.09011840820312,-85.54124450683594
624,791414778,102.29995727539062,37.58036041259766,-47.46497344970703,-25.70573043823242,14.70279121398926,-30.60972023010254,614.20208740234375,-318.89776611328125,-70.29012298583984
625,791423111,105.36335754394531,38.78737258911133,-51.00885391235352,-23.21137619018555,17.27930450439453,-33.10813140869141,630.42260742187500,-358.74322509765625,-62.50670242309570
626,791431444,108.52000427246094,40.02192687988281,-54.91043090820312,-17.53036308288574,20.01944541931152,-31.99000167846680,675.91271972656250,-388.78930664062500,-38.06274032592773
627,791439777,112.01856994628906,41.21922683715820,-58.69282150268555,-9.36621379852295,20.66016006469727,-32.45091629028320,712.15539550781250,-370.17864990234375,-8.66172122955322
628,791448110,115.97608184814453,42.25058746337891,-62.01356887817383,-5.43358612060547,14.19165420532227,-37.28105545043945,735.93731689453125,-320.33755493164062,13.92986106872559
629,791456443,120.46656036376953,43.01706314086914,-64.96573638916016,-4.24132633209229,10.82668209075928,-40.76930236816406,778.73303222656250,-272.69360351562500,40.43540191650391
630,791464776,125.23850250244141,43.63310623168945,-67.83506011962891,-5.47789859771729,11.76363563537598,-36.68448257446289,808.82537841796875,-250.08476257324219,72.02693939208984
631,791473109,130.28019714355469,44.18978881835938,-70.46654510498047,-6.30393600463867,11.79596424102783,-30.35683631896973,819.02093505859375,-219.11344909667969,92.01335144042969
632,791481442,135.39535522460938,44.63492584228516,-72.93159484863281,-7.27423095703125,12.79801750183105,-27.90591049194336,815.14154052734375,-190.91400146484375,109.53105926513672
633,791489775,140.47360229492188,44.98014831542969,-75.39806365966797,-7.44125032424927,14.10487842559814,-27.86269378662109,817.92883300781250,-170.95748901367188,126.41110992431641
634,791498108,145.62501525878906,45.37394332885742,-77.73579406738281,-6.97905826568604,13.12851715087891,-29.14209938049316,817.10681152343750,-156.14776611328125,127.89981842041016
635,791506441,150.77888488769531,45.89588165283203,-80.16255950927734,-4.38969230651855,10.05520153045654,-30.96617317199707,821.29370117187500,-159.22644042968750,144.64244079589844
636,791514774,155.89259338378906,46.41302871704102,-82.82913208007812,1.66692876815796,3.88704061508179,-31.80868339538574,839.26281738281250,-154.71789550781250,174.31863403320312
637,791523107,160.73666381835938,46.99205017089844,-86.04622650146484,7.42428827285767,3.96819734573364,-29.89574813842773,862.19281005859375,-161.89767456054688,218.67880249023438
638,791531440,165.25727844238281,47.75559616088867,-89.63739776611328,12.72999572753906,4.50286674499512,-30.37502288818359,859.47302246093750,-172.45790100097656,250.64521789550781
639,791539773,169.73097229003906,48.68858718872070,-93.44367218017578,15.15784168243408,4.90029668807983,-31.30532455444336,872.59661865234375,-174.78240966796875,277.17324829101562
640,791548106,173.91638183593750,49.75684738159180,-97.67262268066406,13.76753139495850,4.53654718399048,-33.67903518676758,881.99243164062500,-175.68116760253906,314.10684204101562
641,791556439,177.69013977050781,51.02856826782227,-102.42504119873047,12.91752624511719,4.23077297210693,-34.72576904296875,892.11669921875000,-178.24206542968750,349.83496093750000
642,791564772,-178.56559753417969,52.55326843261719,-107.41720581054688,11.22303295135498,0.89642524719238,-35.29938888549805,916.16973876953125,-188.52450561523438,374.13717651367188
643,791573105,-174.93368530273438,54.43585586547852,-112.76563262939453,10.21281528472900,-1.86903834342957,-39.89300537109375,951.60504150390625,-203.27757263183594,392.44674682617188
644,791581438,-171.09423828125000,56.70861434936523,-118.17840576171875,11.65635967254639,-1.46646046638489,-42.37837600708008,992.95617675781250,-229.50714111328125,403.89117431640625
645,791589771,-167.28640747070312,59.43220901489258,-123.79203033447266,17.89704322814941,-2.40742874145508,-45.27461624145508,1028.54040527343750,-253.54922485351562,409.70117187500000
646,791598104,-163.28451538085938,62.18604660034180,-129.52050781250000,26.96913528442383,-4.02713441848755,-46.79214477539062,1077.51428222656250,-238.72036743164062,416.18869018554688
647,791606437,-159.61907958984375,64.98584747314453,-135.85012817382812,32.73398590087891,-2.47749853134155,-48.86040115356445,1120.02612304687500,-210.28762817382812,425.64511108398438
648,791614770,-156.17390441894531,67.78483581542969,-142.67875671386719,35.26721954345703,0.18453788757324,-53.05783462524414,1162.16455078125000,-192.68617248535156,440.76113891601562
649,791623103,-153.72116088867188,70.71884918212891,-150.71952819824219,35.73848342895508,4.77554750442505,-56.33116149902344,1196.65002441406250,-173.19445800781250,457.00149536132812
650,791631436,-152.45904541015625,73.60260009765625,-160.08015441894531,34.97427368164062,9.83077716827393,-58.51206970214844,1219.18701171875000,-158.06568908691406,475.37225341796875
651,791639769,-153.76269531250000,76.59448242187500,-172.09494018554688,33.05271530151367,12.39026641845703,-60.06251907348633,1237.10986328125000,-150.70599365234375,490.52780151367188
652,791648102,-158.26890563964844,79.34754180908203,172.57147216796875,31.17406845092773,12.04518699645996,-63.19033432006836,1257.86340332031250,-150.00830078125000,496.47207641601562
653,791656435,-169.06893920898438,81.64543914794922,150.87045288085938,31.18716621398926,12.66578769683838,-67.01519012451172,1273.17114257812500,-139.35835266113281,485.32241821289062
654,791664768,174.17814636230469,82.78409576416016,123.22624206542969,29.66656684875488,14.17675495147705,-68.79379272460938,1275.22192382812500,-118.94778442382812,465.42340087890625
655,791673101,155.05111694335938,82.55766296386719,93.19615936279297,27.54329490661621,15.75222587585449,-69.91941070556641,1279.81481933593750,-94.85485076904297,444.09631347656250
656,791681434,142.90319824218750,81.24949645996094,70.08638763427734,25.78814888000488,17.82801818847656,-70.80927276611328,1285.36193847656250,-74.16559600830078,427.04202270507812
657,791689767,136.48880004882812,79.36499786376953,52.65995788574219,24.57265090942383,20.61852264404297,-70.74449157714844,1291.95642089843750,-55.92539596557617,410.94021606445312
658,791698100,135.10247802734375,77.26494598388672,40.21471023559570,22.75284004211426,22.60047531127930,-69.07118225097656,1291.51721191406250,-36.44950103759766,406.17697143554688
659,791706433,135.27819824218750,74.98308563232422,29.32464218139648,20.18023109436035,25.05638885498047,-66.77566528320312,1289.86267089843750,-26.63517761230469,412.98587036132812
660,791714766,136.88052368164062,72.83031463623047,19.90831375122070,17.95216369628906,26.05128097534180,-63.30640792846680,1271.65026855468750,-36.47287368774414,418.26281738281250
661,791723099,138.33493041992188,70.85384368896484,10.38564109802246,16.29039382934570,24.02799224853516,-61.72702789306641,1260.36816406250000,-64.79074859619141,420.92681884765625
662,791731432,140.53916931152344,69.22909545898438,1.43772125244141,17.93638038635254,21.15007400512695,-62.08279037475586,1266.50000000000000,-94.57285308837891,417.82092285156250
663,791739765,142.76010131835938,67.79587554931641,-7.49727582931519,22.04818344116211,18.31611442565918,-63.03105545043945,1264.15307617187500,-108.57416534423828,412.94146728515625
664,791748098,145.67094421386719,66.65998840332031,-15.95739650726318,23.10865402221680,15.20135879516602,-65.82463073730469,1277.53723144531250,-122.95534515380859,410.57040405273438
665,791756431,148.55366516113281,65.69430541992188,-24.48896026611328,25.84226226806641,16.39298439025879,-70.12264251708984,1282.40075683593750,-126.92789459228516,408.54312133789062
666,791764764,151.89988708496094,64.87844848632812,-32.62896728515625,28.76983451843262,20.13182640075684,-72.07484436035156,1280.55041503906250,-121.63280487060547,414.99768066406250
