sep=,
DeviceTag:,Xsens DOT
FirmwareVersion:,2.1.0
AppVersion:,2022.0.0
StartTime: ,2022-08-15_19:19:05_000 EDT
© Xsens Technologies B. V. 2005-2022

PacketCounter,SampleTimeFine,Euler_X,Euler_Y,Euler_Z,Acc_X,Acc_Y,Acc_Z,Gyr_X,Gyr_Y,Gyr_Z
0,661453750,125.10774230957031,42.20441818237305,-106.70210266113281,0.00000000000000,0.00000000000000,0.00000000000000,0.00000000000000,0.00000000000000,0.00000000000000
1,661462083,125.04606628417969,42.49258422851562,-106.83813476562500,-8.48877525329590,8.44484615325928,-7.36432600021362,2.59432840347290,-29.48750495910645,-24.03768348693848
2,661470416,126.27727508544922,42.10619735717773,-105.80390167236328,-8.82045841217041,8.71007919311523,-7.44913244247437,2.68455433845520,-27.50115013122559,-27.01164054870605
3,661478749,126.25199127197266,42.41635894775391,-105.88937377929688,-8.91659164428711,8.44177532196045,-7.20126247406006,2.86294555664062,-27.88274574279785,-28.18520164489746
4,661487082,127.89500427246094,41.40925216674805,-104.51924133300781,-8.70465755462646,8.60598850250244,-6.11160993576050,5.64368486404419,-34.87578964233398,-26.94276428222656
5,661495415,127.82460021972656,41.79706573486328,-104.63968658447266,-7.57707357406616,7.61095666885376,-6.99433994293213,0.14504089951515,-36.84891891479492,-32.78254699707031
6,661503748,128.49415588378906,41.34219360351562,-103.96533966064453,-7.58717203140259,7.36446571350098,-6.31929349899292,6.62431907653809,-39.22813796997070,-36.09170913696289
7,661512081,129.33200073242188,40.91316604614258,-103.56204986572266,-7.63854265213013,7.50772905349731,-7.06896305084229,22.35156631469727,-26.19999694824219,-34.14849853515625
8,661520414,129.53906250000000,41.19881057739258,-103.57431793212891,-8.78281974792480,8.81498813629150,-4.10917282104492,24.80877304077148,-22.41628265380859,-28.50495147705078
9,661528747,129.60615539550781,41.12823486328125,-103.74096679687500,-8.96074676513672,5.58760166168213,-5.06755113601685,24.30069351196289,-39.99802398681641,-31.63049697875977
10,661537080,129.78765869140625,41.43958282470703,-103.98359680175781,-9.63657188415527,7.82733011245728,-5.02228879928589,40.00837326049805,-40.48540496826172,-17.50054740905762
11,661545413,129.72517395019531,41.86029052734375,-104.36730957031250,-10.84288406372070,7.27621746063232,-2.94475817680359,33.11669921875000,-43.70619964599609,-15.78748035430908
12,661553746,129.77842712402344,42.17778396606445,-104.68528747558594,-10.72868919372559,6.68355560302734,-4.44284248352051,30.94419288635254,-45.93979644775391,-13.87422084808350
13,661562079,129.36575317382812,43.06029129028320,-105.33226776123047,-10.89090728759766,7.61710453033447,-2.87631058692932,36.48967742919922,-44.31419754028320,-12.90641212463379
14,661570412,129.42408752441406,43.38465118408203,-105.59424591064453,-10.39744567871094,6.73404455184937,-2.99486160278320,27.54535293579102,-42.18421936035156,-18.22890472412109
15,661578745,128.75814819335938,44.41765975952148,-106.29698181152344,-9.75168418884277,7.15301227569580,-3.46790909767151,29.16042137145996,-33.46163177490234,-20.32972526550293
16,661587078,128.90980529785156,44.63796997070312,-106.35039520263672,-9.49378967285156,7.40311622619629,-3.19457316398621,21.72062492370605,-19.91093826293945,-20.39725112915039
17,661595411,128.21893310546875,45.48594665527344,-106.96519470214844,-9.39054393768311,6.98580837249756,-2.79852843284607,22.10650253295898,-17.00343894958496,-20.14026069641113
18,661603744,128.43106079101562,45.68222045898438,-106.98718261718750,-9.60133171081543,7.34987878799438,-1.92772054672241,26.37263870239258,-15.82290363311768,-19.99082946777344
19,661612077,127.67197418212891,46.48549652099609,-107.68751525878906,-10.06718635559082,7.25653743743896,-0.84220939874649,26.15520477294922,-18.70597076416016,-21.49835968017578
20,661620410,127.86835479736328,46.73307418823242,-107.72692871093750,-10.27635478973389,7.46822595596313,-0.31667312979698,26.04405593872070,-20.53093147277832,-24.14766693115234
21,661628743,126.87964630126953,47.59449005126953,-108.55540466308594,-10.26458454132080,6.98079824447632,-0.42883270978928,20.71481132507324,-19.69504356384277,-27.38534355163574
22,661637076,127.04713439941406,47.84397506713867,-108.51451873779297,-10.21150970458984,7.71442604064941,-0.55965286493301,15.53375911712646,-15.12483978271484,-28.53964614868164
23,661645409,125.89965057373047,48.66828155517578,-109.38816833496094,-10.58708477020264,6.71026659011841,-0.39783775806427,10.23659801483154,-15.08036994934082,-28.28159713745117
24,661653742,126.03343963623047,48.91284942626953,-109.30392456054688,-10.41640663146973,6.57473182678223,-0.53249311447144,7.52504587173462,-11.59857082366943,-30.28593635559082
25,661662075,124.87828826904297,49.73534011840820,-110.12144470214844,-10.80095863342285,5.46938514709473,-0.15052597224712,3.15271878242493,-9.96704578399658,-32.58266830444336
26,661670408,125.03800964355469,49.98399353027344,-109.90808868408203,-10.55036926269531,5.51325941085815,-0.62817144393921,-1.32062029838562,-3.31648349761963,-36.52217483520508
27,661678741,123.97071075439453,50.82377243041992,-110.55281829833984,-10.81705951690674,5.08951997756958,-0.56766855716705,-7.12133073806763,-0.71438199281693,-38.93256759643555
28,661687074,124.15968322753906,51.08653640747070,-110.21508026123047,-10.06182670593262,4.35731554031372,-1.82747268676758,-9.70478916168213,3.74717712402344,-43.02071762084961
29,661695407,123.30070495605469,51.91067504882812,-110.65303802490234,-9.89173221588135,4.76958990097046,-1.75543999671936,-9.95655345916748,7.48517179489136,-42.67597961425781
30,661703740,123.55229187011719,52.16097259521484,-110.21485137939453,-9.15454387664795,3.83116292953491,-2.34843158721924,-12.16442966461182,10.72043704986572,-45.47043228149414
31,661712073,122.99411010742188,52.92337799072266,-110.39459991455078,-8.92122936248779,4.18503618240356,-2.37033534049988,-8.06258296966553,17.22385215759277,-45.80800628662109
32,661720406,123.39080810546875,53.14099502563477,-109.83628845214844,-9.11002731323242,4.00720500946045,-1.83663773536682,-6.81755065917969,19.69809532165527,-46.48127746582031
33,661728739,123.10924530029297,53.84224700927734,-109.77745819091797,-9.04771804809570,4.41336154937744,-1.51301038265228,-5.92520332336426,25.67906951904297,-48.98328399658203
34,661737072,123.55451965332031,54.05867004394531,-109.13035583496094,-9.62051010131836,4.48500537872314,-1.03081715106964,-10.23826694488525,24.19433593750000,-49.37174606323242
35,661745405,123.34495544433594,54.75611877441406,-108.94495391845703,-8.88720130920410,3.55154538154602,-1.67563605308533,-14.20232200622559,27.33418464660645,-54.20595550537109
36,661753738,123.85929107666016,54.97465896606445,-108.15115356445312,-9.08343410491943,3.64505004882812,-1.40783405303955,-17.06403541564941,31.43832588195801,-54.73519134521484
37,661762071,123.74932861328125,55.65357589721680,-107.81212615966797,-9.06509590148926,2.75266885757446,-1.55725741386414,-22.63708305358887,30.64814567565918,-57.47324752807617
38,661770404,124.25225830078125,55.88487243652344,-106.97914123535156,-8.79722881317139,2.97572660446167,-1.78414833545685,-23.16870880126953,31.39461326599121,-56.99667358398438
39,661778737,124.24473571777344,56.53042221069336,-106.55205535888672,-8.57643604278564,2.74928760528564,-1.08577227592468,-24.33280563354492,31.28311347961426,-55.69774246215820
40,661787070,124.73554229736328,56.72613906860352,-105.69275665283203,-8.33780479431152,2.89623737335205,-0.93790388107300,-28.10198402404785,33.75930786132812,-54.01391220092773
41,661795403,124.72372436523438,57.32159042358398,-105.24929046630859,-8.56374168395996,2.91071271896362,-0.90652531385422,-29.89269828796387,30.72038841247559,-50.82477951049805
42,661803736,125.10744476318359,57.51420211791992,-104.51630401611328,-8.30706787109375,2.99589133262634,-1.74430012702942,-28.94146919250488,25.92477798461914,-48.58726501464844
43,661812069,125.01356506347656,58.07724761962891,-104.23899841308594,-8.12849521636963,3.44862413406372,-1.59217894077301,-25.82156753540039,19.42605018615723,-41.85824584960938
44,661820402,125.27885437011719,58.25064849853516,-103.67834472656250,-7.27572202682495,3.52503991127014,-1.47840738296509,-26.18997192382812,17.36158370971680,-39.95373153686523
45,661828735,125.12480163574219,58.73056411743164,-103.48661804199219,-6.80646991729736,4.11142873764038,-1.33555006980896,-26.26646804809570,16.11546707153320,-33.00543212890625
46,661837068,125.19155120849609,58.84964752197266,-103.20305633544922,-6.69257831573486,3.87559795379639,-1.00934994220734,-21.95769691467285,6.51420593261719,-24.34092330932617
47,661845401,124.86053466796875,59.24929046630859,-103.33049011230469,-6.16027927398682,3.59883689880371,-0.85994476079941,-15.43962955474854,1.92274653911591,-17.82354736328125
48,661853734,124.84642028808594,59.30970764160156,-103.24237823486328,-6.34387636184692,3.38350009918213,-0.74429309368134,-11.63959693908691,0.62820214033127,-11.53355503082275
49,661862067,124.43513488769531,59.62608337402344,-103.48504638671875,-6.51428174972534,3.08757615089417,-0.80459088087082,-13.54573249816895,-0.66807055473328,-9.00358486175537
50,661870400,124.39267730712891,59.66340255737305,-103.38412475585938,-6.10439014434814,2.87124943733215,-1.08019435405731,-16.39490699768066,2.86312150955200,-9.64312076568604
51,661878733,124.08068847656250,59.93273925781250,-103.46823883056641,-5.60327053070068,3.01803517341614,-1.20175874233246,-18.79230308532715,8.06017589569092,-11.88337039947510
52,661887066,124.04073333740234,59.94420623779297,-103.31804656982422,-5.68835592269897,3.39218330383301,-0.78930425643921,-21.23966789245605,7.06150245666504,-8.68161487579346
53,661895399,123.64161682128906,60.17073822021484,-103.46861267089844,-5.59356641769409,2.60556483268738,-0.57120001316071,-22.96837425231934,5.13213443756104,-7.81285810470581
54,661903732,123.60913085937500,60.16564178466797,-103.27559661865234,-4.83160972595215,2.58805394172668,-0.92786312103271,-24.83575820922852,10.29343318939209,-8.35352420806885
55,661912065,123.20578002929688,60.31104278564453,-103.43016815185547,-5.50647258758545,2.68336224555969,-0.47485932707787,-23.69960975646973,8.25282001495361,-1.13207292556763
56,661920398,123.02542114257812,60.26133728027344,-103.41840362548828,-5.64793348312378,2.32123780250549,-0.01192083116621,-23.70298767089844,4.21219825744629,2.14187598228455
57,661928731,122.79566955566406,60.18443298339844,-103.43338775634766,-5.69410467147827,2.27495980262756,-0.40529617667198,-26.85994911193848,4.60873365402222,5.74201059341431
58,661937064,122.20887756347656,60.26976776123047,-103.77863311767578,-6.23877477645874,2.10773396492004,-0.33508870005608,-26.09703063964844,1.39171206951141,10.01262474060059
59,661945397,121.87921905517578,60.16888427734375,-103.90620422363281,-6.39037466049194,1.75426220893860,-0.55651104450226,-27.11898994445801,0.33069285750389,11.80936241149902
60,661953730,121.24303436279297,60.21787261962891,-104.29512023925781,-6.59982156753540,2.00001311302185,-0.50963193178177,-27.87271881103516,0.19726818799973,14.51904392242432
61,661962063,120.85029602050781,60.08660125732422,-104.48921966552734,-6.89583110809326,1.73868739604950,-0.54968684911728,-27.76956939697266,-1.44910097122192,16.99381637573242
62,661970396,120.23487091064453,60.11048126220703,-104.85964965820312,-6.63633680343628,1.86754381656647,-0.92786812782288,-27.84994316101074,1.35959184169769,16.57638168334961
63,661978729,119.57713317871094,60.11322784423828,-105.25804901123047,-7.16452836990356,2.36043405532837,-0.28755277395248,-30.68040847778320,-0.06554690003395,19.80980300903320
64,661987062,119.09609985351562,59.95969009399414,-105.49773406982422,-7.28475856781006,2.03293180465698,-0.23628136515617,-33.62390899658203,-3.09584355354309,20.64990806579590
65,661995395,118.65079498291016,59.78749465942383,-105.69690704345703,-7.19389009475708,1.89492404460907,-0.58647590875626,-33.58778762817383,-0.14943365752697,21.42250823974609
66,662003728,117.99166870117188,59.75360488891602,-106.07859039306641,-7.62036895751953,2.18222904205322,-0.44140148162842,-32.83132171630859,1.72124040126801,23.20869255065918
67,662012061,117.30198669433594,59.70232391357422,-106.48374938964844,-8.39738845825195,2.61489033699036,-0.28499642014503,-34.50094604492188,0.50054138898849,25.95106697082520
68,662020394,116.84799194335938,59.48694610595703,-106.65885162353516,-8.73982620239258,2.32551574707031,-0.45276886224747,-37.15986633300781,2.71512651443481,25.42011260986328
69,662028727,116.46293640136719,59.24711227416992,-106.73520660400391,-8.68129444122314,2.56363463401794,-1.08258998394012,-39.14456939697266,9.13163375854492,25.36110115051270
70,662037060,115.81125640869141,59.13791656494141,-107.05529785156250,-9.38856410980225,3.52187037467957,-0.79384756088257,-39.01816940307617,6.96384668350220,30.35435104370117
71,662045393,115.22509765625000,59.03259658813477,-107.32526397705078,-9.28481674194336,2.53041601181030,-1.14799344539642,-36.72232818603516,8.54404163360596,28.75775718688965
72,662053726,114.90457153320312,58.73927307128906,-107.34133148193359,-8.78792667388916,3.32292008399963,-1.86366260051727,-37.60794830322266,14.44906044006348,29.88833045959473
73,662062059,114.53556060791016,58.43468093872070,-107.41881561279297,-9.41742801666260,3.22505497932434,-0.75664919614792,-37.15680694580078,11.29419898986816,32.78922653198242
74,662070392,114.00217437744141,58.31263732910156,-107.60216522216797,-8.95408630371094,2.79922294616699,-0.89175415039062,-39.91798400878906,12.39085102081299,28.86698913574219
75,662078725,113.42414093017578,58.18298721313477,-107.81473541259766,-9.43374061584473,3.14928245544434,-0.02643988654017,-42.62263107299805,10.31645488739014,30.75646591186523
76,662087058,113.04348754882812,57.92945098876953,-107.81904602050781,-9.52026462554932,2.16161990165710,-0.18803717195988,-46.02727508544922,12.21214103698730,25.66727828979492
77,662095391,112.62607574462891,57.67004013061523,-107.84010314941406,-9.50183105468750,2.88122987747192,-0.20699229836464,-48.75217819213867,11.27238273620605,26.78863716125488
78,662103724,111.99114990234375,57.58548355102539,-108.05297088623047,-10.23578166961670,2.05770158767700,0.14524552226067,-49.54647445678711,7.31942987442017,26.65190696716309
79,662112057,111.38992309570312,57.52309036254883,-108.23994445800781,-9.75814247131348,2.29629874229431,-0.40906798839569,-48.25823593139648,7.68983602523804,24.34548187255859
80,662120390,110.86650085449219,57.28578186035156,-108.40125274658203,-10.45324897766113,2.68040823936462,0.40589004755020,-47.27364730834961,1.02381634712219,27.95105171203613
81,662128723,110.30384826660156,57.07793045043945,-108.62798309326172,-10.41938114166260,2.76149702072144,0.63482767343521,-45.44422149658203,-4.58242368698120,26.12951469421387
82,662137056,109.52330780029297,57.03362274169922,-109.03670501708984,-10.14240074157715,2.99908781051636,0.65005308389664,-47.48017883300781,-7.39218568801880,28.13993835449219
83,662145389,108.74459075927734,56.98845291137695,-109.44086456298828,-9.79944801330566,3.17390203475952,0.67836207151413,-47.56914520263672,-7.05051708221436,28.45051193237305
84,662153722,108.07479858398438,56.76647186279297,-109.71925354003906,-9.26769638061523,2.86107206344604,-0.04397575557232,-53.16643905639648,-8.39312076568604,28.69401741027832
85,662162055,107.53589630126953,56.55604171752930,-109.87035369873047,-7.87104654312134,1.71175777912140,-1.01788127422333,-50.29999542236328,-1.29367613792419,24.70746994018555
86,662170388,106.81492614746094,56.49839019775391,-110.13726806640625,-8.26107501983643,2.50738310813904,-0.51131337881088,-54.40005874633789,0.93251484632492,27.07018470764160
87,662178721,106.11071777343750,56.43484878540039,-110.44491577148438,-9.53372955322266,1.03579986095428,-0.43413755297661,-48.78697204589844,-2.48912119865417,28.59364318847656
88,662187054,105.73225402832031,56.19751358032227,-110.46866607666016,-9.78453159332275,1.26429545879364,-0.35518068075180,-43.80374526977539,6.83675050735474,25.50267791748047
89,662195387,105.33259582519531,55.95207595825195,-110.44936370849609,-10.69257545471191,1.38666617870331,0.08383626490831,-50.64896011352539,9.63373374938965,25.67523384094238
90,662203720,104.54766082763672,55.86906433105469,-110.82231903076172,-11.91428184509277,1.19000458717346,0.55502748489380,-52.47993087768555,-7.48937273025513,33.02927398681641
91,662212053,103.89990997314453,55.80823516845703,-111.15933990478516,-11.60102748870850,0.38432356715202,0.03078702464700,-39.74882507324219,-6.10281038284302,31.04576873779297
92,662220386,103.47641754150391,55.55147552490234,-111.25935363769531,-12.03310966491699,0.82296890020370,0.08994980901480,-41.65270233154297,1.29051208496094,29.26177978515625
93,662228719,102.95793914794922,55.29488372802734,-111.45998382568359,-12.70452499389648,1.05695307254791,0.33077305555344,-43.15722656250000,-5.73324871063232,30.77159690856934
94,662237052,102.29360198974609,55.24301528930664,-111.83547973632812,-12.36621570587158,0.35829034447670,0.50129806995392,-38.26275634765625,-9.98045539855957,32.08386230468750
95,662245385,101.69544219970703,55.20640182495117,-112.19947052001953,-12.11694049835205,0.88899713754654,1.11927187442780,-31.59841156005859,-9.78427028656006,31.60070800781250
96,662253718,101.32662963867188,54.95886611938477,-112.39210510253906,-12.06759452819824,0.29779294133186,1.39496958255768,-26.04684448242188,-6.42628765106201,29.52046012878418
97,662262051,100.94482421875000,54.69854736328125,-112.59779357910156,-12.28264427185059,0.75028938055038,1.48188984394073,-26.39284706115723,-7.35478115081787,31.10442543029785
98,662270384,100.46538543701172,54.68044662475586,-112.90653228759766,-12.28203296661377,0.21167711913586,1.01398122310638,-22.70323181152344,-6.86029481887817,29.93932533264160
99,662278717,100.07825469970703,54.66653060913086,-113.15764617919922,-11.84807395935059,-0.24922992289066,0.39384406805038,-17.23025321960449,-2.87681436538696,29.99774360656738
100,662287050,99.89459991455078,54.40784072875977,-113.26015472412109,-11.91414642333984,0.75049400329590,0.47626751661301,-12.74698734283447,-0.99232202768326,29.64613533020020
101,662295383,99.73701477050781,54.14556503295898,-113.37776947021484,-12.43710613250732,0.36835056543350,0.44895961880684,-8.19832897186279,-2.15766835212708,30.16871452331543
102,662303716,99.48043823242188,54.13347625732422,-113.60708618164062,-12.33951377868652,0.79319834709167,0.21314035356045,-3.86096501350403,-1.85278189182281,30.83007812500000
103,662312049,99.27399444580078,54.12596511840820,-113.84202575683594,-12.91242885589600,0.54540967941284,0.20990228652954,2.50731539726257,-2.50169324874878,31.42183876037598
104,662320382,99.18068695068359,53.82855224609375,-114.02325439453125,-13.49916839599609,0.51059854030609,0.29934272170067,5.67592811584473,-6.20234012603760,35.18335342407227
105,662328715,99.09313964843750,53.85372161865234,-114.26303863525391,-13.35157299041748,0.38221535086632,-0.03651383519173,17.07134056091309,-3.62373900413513,28.85592651367188
106,662337048,99.13148498535156,53.58474349975586,-114.37692260742188,-14.38982295989990,1.42486143112183,0.38219219446182,14.89688396453857,-2.14998412132263,31.09073066711426
107,662345381,98.98796081542969,53.62645721435547,-114.68731689453125,-14.52432918548584,1.77999329566956,0.51588326692581,17.02081871032715,-8.95928096771240,28.89359664916992
108,662353714,99.04468536376953,53.39654541015625,-114.84106445312500,-14.13567924499512,0.90212023258209,-0.31754884123802,20.92630004882812,-5.76623058319092,26.95121192932129
109,662362047,99.00836944580078,53.44884872436523,-115.09288024902344,-14.08775043487549,2.82046318054199,0.16201663017273,24.10117149353027,-5.03266572952271,28.03892898559570
110,662370380,99.10246276855469,53.23781204223633,-115.26898193359375,-14.37561893463135,1.80725884437561,-0.25508061051369,27.53535270690918,-7.70438766479492,25.02177429199219
111,662378713,99.07579040527344,53.33411407470703,-115.58348083496094,-13.65318775177002,3.69783782958984,-0.21822901070118,31.18712997436523,-10.26361370086670,24.18288040161133
112,662387046,99.17682647705078,53.16322708129883,-115.79181671142578,-13.72628593444824,3.43862199783325,-0.65869534015656,31.45108222961426,-10.72226047515869,20.69042396545410
113,662395379,99.17475128173828,53.34114074707031,-116.09848022460938,-12.53112697601318,3.92724537849426,-1.64013326168060,33.32186889648438,-11.28833580017090,14.52691268920898
114,662403712,99.28012084960938,53.27513504028320,-116.31127929687500,-12.35099887847900,4.55371236801147,-1.51356923580170,32.41810989379883,-12.97206020355225,8.37943553924561
115,662412045,99.22599792480469,53.58270263671875,-116.71533966064453,-11.83189582824707,3.19848060607910,-1.50616061687469,36.25596618652344,-20.93449211120605,-0.12717485427856
116,662420378,99.30786132812500,53.67303848266602,-117.09895324707031,-10.82705783843994,2.57579493522644,-1.95838356018066,46.18849182128906,-27.84845733642578,-8.14340114593506
117,662428711,99.40725708007812,53.78786849975586,-117.56232452392578,-10.49813461303711,2.47358131408691,-1.47504985332489,56.05114746093750,-33.92718505859375,-10.21653366088867
118,662437044,99.42745971679688,54.18005371093750,-118.24069976806641,-10.20246791839600,1.63850152492523,-1.50641930103302,72.00265502929688,-41.27505874633789,-7.28089141845703
119,662445377,99.47582244873047,54.50055694580078,-119.04508972167969,-9.17523860931396,1.79095792770386,-2.09177255630493,87.72132110595703,-48.52470397949219,2.21930098533630
120,662453710,99.68157196044922,54.41205215454102,-119.87441253662109,-8.72279548645020,2.27612447738647,-2.54409456253052,104.96931457519531,-54.39858245849609,18.35389328002930
121,662462043,99.87471771240234,54.51177215576172,-120.86223602294922,-8.27596378326416,2.66197109222412,-3.47753620147705,123.11126708984375,-56.59519577026367,30.02403640747070
122,662470376,100.30304718017578,54.22103881835938,-121.78769683837891,-8.19538784027100,4.71971464157104,-3.45010948181152,140.96766662597656,-56.68793106079102,43.98551559448242
123,662478709,100.69248962402344,54.18943405151367,-122.82894897460938,-7.73939514160156,4.68139266967773,-4.67963171005249,151.50103759765625,-57.87231063842773,45.70315170288086
124,662487042,101.25280761718750,53.84621810913086,-123.86759948730469,-7.22910308837891,6.12577533721924,-4.33630084991455,167.39413452148438,-63.13373565673828,52.71633911132812
125,662495375,101.65795135498047,53.73403167724609,-125.13462829589844,-7.35376262664795,6.52907371520996,-4.61644124984741,174.63627624511719,-72.23371887207031,57.67150115966797
126,662503708,102.09774017333984,53.39104843139648,-126.53817749023438,-7.64791059494019,6.77049922943115,-5.38475990295410,187.58108520507812,-88.49427032470703,59.25561523437500
127,662512041,102.47990417480469,53.34204483032227,-128.09709167480469,-8.01636695861816,7.31809902191162,-5.87647247314453,199.36184692382812,-94.86756134033203,53.85264968872070
128,662520374,102.97504425048828,53.14355850219727,-129.64299011230469,-8.41449451446533,7.38014888763428,-6.80154895782471,207.33615112304688,-102.09550476074219,46.11502075195312
129,662528707,103.34556579589844,53.23408508300781,-131.36103820800781,-8.79345893859863,6.74752092361450,-8.28437328338623,212.80548095703125,-110.20474243164062,39.66341018676758
130,662537040,103.80470275878906,53.15154266357422,-133.11529541015625,-9.30452251434326,5.96587896347046,-9.36117553710938,222.94017028808594,-119.32829284667969,37.69778060913086
131,662545373,104.19120788574219,53.33884811401367,-135.00164794921875,-9.86123275756836,6.35787820816040,-10.08708190917969,230.51249694824219,-125.20411682128906,31.34600639343262
132,662553706,104.65282440185547,53.40322113037109,-136.87348937988281,-10.23659801483154,6.64993906021118,-10.63024902343750,234.94416809082031,-130.76754760742188,24.39970207214355
133,662562039,105.03355407714844,53.70551681518555,-138.84768676757812,-10.52563381195068,7.41992950439453,-11.20800971984863,238.33546447753906,-134.80364990234375,19.92964744567871
134,662570372,105.43227386474609,53.88842010498047,-140.85350036621094,-11.01997280120850,7.77072715759277,-12.02137088775635,241.35908508300781,-141.99018859863281,14.71610164642334
135,662578705,105.73014068603516,54.29088211059570,-142.99812316894531,-11.13140487670898,7.69516611099243,-12.64462375640869,245.46287536621094,-149.17823791503906,11.51070976257324
136,662587038,106.06023406982422,54.56340026855469,-145.14274597167969,-10.87153530120850,7.86418581008911,-12.98162937164307,248.21183776855469,-152.00219726562500,8.11948680877686
137,662595371,106.35454559326172,55.02809906005859,-147.33660888671875,-10.49405097961426,8.00198554992676,-13.62814235687256,250.84996032714844,-153.69207763671875,5.00101041793823
138,662603704,106.68732452392578,55.36539077758789,-149.51628112792969,-10.35163688659668,8.35283088684082,-13.77546977996826,253.96566772460938,-153.70133972167969,2.24227786064148
139,662612037,107.00222778320312,55.87285614013672,-151.71986389160156,-10.28325080871582,8.44521236419678,-13.72231292724609,255.51261901855469,-154.72027587890625,-0.14598700404167
140,662620370,107.28161621093750,56.26388931274414,-154.01081848144531,-10.19894981384277,8.20207118988037,-13.91984462738037,260.86590576171875,-159.55187988281250,-0.99621969461441
141,662628703,107.58026885986328,56.80045318603516,-156.35008239746094,-9.57037639617920,8.48991107940674,-14.42043113708496,268.64117431640625,-162.90838623046875,-1.41146719455719
142,662637036,107.73630523681641,57.21438980102539,-158.85968017578125,-10.18275928497314,9.43733406066895,-11.90963268280029,270.54223632812500,-170.42361450195312,1.04209387302399
143,662645369,107.49169158935547,57.80540847778320,-161.62239074707031,-10.73823547363281,8.38985061645508,-10.75326538085938,248.26049804687500,-188.72254943847656,-1.32124423980713
144,662653702,106.72810363769531,58.37049865722656,-164.92921447753906,-10.32213115692139,7.20969104766846,-10.38464927673340,244.43580627441406,-219.53439331054688,-4.44846296310425
145,662662035,105.60746765136719,59.09144973754883,-168.66960144042969,-8.99231052398682,7.02668952941895,-9.96809196472168,247.01918029785156,-246.46405029296875,-6.60166406631470
146,662670368,103.89641571044922,59.73643112182617,-173.16694641113281,-8.40789699554443,6.44088268280029,-9.65194702148438,258.50155639648438,-284.35510253906250,-6.24297571182251
147,662678701,101.63893127441406,60.44534301757812,-178.40214538574219,-7.38049030303955,6.34444427490234,-8.62127971649170,271.62487792968750,-323.86752319335938,-2.81098985671997
148,662687034,98.99385833740234,60.92393493652344,175.80397033691406,-4.40163469314575,6.23485851287842,-8.99551486968994,288.07717895507812,-344.26092529296875,3.14868974685669
149,662695367,96.80462646484375,61.30115509033203,170.37606811523438,0.79207253456116,5.16080379486084,-10.12687683105469,305.84191894531250,-318.32250976562500,8.40789604187012
150,662703700,95.25611114501953,61.51333999633789,165.57096862792969,2.12330150604248,3.39702892303467,-9.56619644165039,319.66809082031250,-276.23977661132812,2.31904220581055
151,662712033,94.11341857910156,61.81413650512695,161.32098388671875,3.29225397109985,3.91015863418579,-8.74228382110596,309.71371459960938,-245.84886169433594,-7.45795869827271
152,662720366,93.42716217041016,61.99995803833008,157.68484497070312,4.75216197967529,4.68809795379639,-7.83633184432983,301.75027465820312,-205.67034912109375,-10.10179042816162
153,662728699,92.93891906738281,62.21188354492188,154.33847045898438,4.29401779174805,4.37900781631470,-6.80576705932617,293.93862915039062,-191.57897949218750,-7.63324213027954
154,662737032,92.41849517822266,62.34177398681641,150.95445251464844,3.91794800758362,2.87787914276123,-5.06447982788086,296.18017578125000,-188.62603759765625,-8.12017250061035
155,662745365,91.97665405273438,62.51625823974609,147.70173645019531,4.00345468521118,1.86041986942291,-2.01909112930298,292.17095947265625,-180.47933959960938,-15.36187744140625
156,662753698,91.73217010498047,62.77309417724609,144.72613525390625,3.96822261810303,1.10639905929565,-1.69534933567047,285.41958618164062,-167.79916381835938,-19.14133453369141
157,662762031,91.61924743652344,62.94510650634766,141.93338012695312,3.26256489753723,1.99218773841858,-2.23750042915344,282.29986572265625,-156.19862365722656,-10.64662361145020
158,662770364,91.52556610107422,62.91538619995117,139.09527587890625,0.71935075521469,2.16719102859497,-1.52607834339142,291.17349243164062,-154.04832458496094,6.41685056686401
159,662778697,91.53507232666016,62.79494476318359,136.31082153320312,-1.24951839447021,2.52184915542603,-1.09773337841034,297.64141845703125,-151.18991088867188,17.13199996948242
160,662787030,91.60014343261719,62.63985061645508,133.57766723632812,-3.13970565795898,3.38598084449768,-0.89168578386307,297.16760253906250,-152.03227233886719,27.82774734497070
161,662795363,91.66645812988281,62.36212921142578,130.83442687988281,-3.94555068016052,4.20121335983276,-1.63538098335266,297.86917114257812,-153.04310607910156,42.30362319946289
162,662803696,91.76651763916016,61.90332412719727,128.09645080566406,-4.84718084335327,4.37227916717529,-2.31360149383545,301.60278320312500,-151.09835815429688,58.20478820800781
163,662812029,91.93591308593750,61.35681915283203,125.44639587402344,-5.89389371871948,4.28946828842163,-2.77640557289124,299.29882812500000,-148.11605834960938,69.02140045166016
164,662820362,92.16043853759766,60.79415512084961,122.89454650878906,-6.98744821548462,4.62218999862671,-2.71263313293457,293.00894165039062,-147.18490600585938,77.19473266601562
165,662828695,92.39391326904297,60.20216751098633,120.43144226074219,-7.59588813781738,5.08179616928101,-3.06502819061279,283.16732788085938,-144.36633300781250,80.93187713623047
166,662837028,92.67326354980469,59.57220077514648,118.08939361572266,-7.90128660202026,5.70696878433228,-3.02220559120178,275.77343750000000,-136.77876281738281,80.31163787841797
167,662845361,93.03710174560547,58.97613525390625,115.90483093261719,-8.02544212341309,6.32122802734375,-2.60022425651550,268.15338134765625,-129.43869018554688,76.69566345214844
168,662853694,93.49159240722656,58.44774627685547,113.86392974853516,-7.90270614624023,6.12389135360718,-2.32443261146545,261.67248535156250,-124.90428924560547,74.64331054687500
169,662862027,93.97432708740234,57.92404937744141,111.90999603271484,-7.41838693618774,6.23017644882202,-1.78828990459442,254.90066528320312,-120.87540435791016,74.52072143554688
170,662870360,94.32937622070312,57.35004425048828,109.92673492431641,-7.47416162490845,6.76491451263428,-1.34289944171906,242.76042175292969,-121.33896636962891,76.46089172363281
171,662878693,94.60988616943359,56.76252746582031,107.96173095703125,-7.83344697952271,7.04677391052246,-1.17573225498199,230.68286132812500,-121.59332275390625,78.84773254394531
172,662887026,94.81901550292969,56.20845413208008,106.01561737060547,-8.91877841949463,7.52781009674072,-0.83454006910324,217.61891174316406,-124.26327514648438,80.36108398437500
173,662895359,94.91057586669922,55.65099334716797,104.04450225830078,-9.44379329681396,7.43899250030518,-0.58963918685913,204.77943420410156,-127.41611480712891,81.00283813476562
174,662903692,94.91459655761719,55.07931137084961,102.07566070556641,-9.53528690338135,7.17281436920166,-0.34829121828079,194.00183105468750,-127.18869781494141,78.36526489257812
175,662912025,94.89443206787109,54.54639053344727,100.16815948486328,-9.44125556945801,6.49508523941040,0.08805177360773,183.78749084472656,-125.21131896972656,73.54164123535156
176,662920358,94.89252471923828,54.09130096435547,98.38745117187500,-9.48237991333008,6.83549690246582,0.54588329792023,171.45570373535156,-120.14211273193359,68.00800323486328
177,662928691,94.81579589843750,53.65456008911133,96.63336181640625,-9.89006137847900,6.53663444519043,0.88792532682419,159.13157653808594,-119.54179382324219,65.60349273681641
178,662937024,94.78123474121094,53.22595596313477,94.98877716064453,-9.48468589782715,6.31330060958862,0.11280531436205,153.48968505859375,-112.12488555908203,59.58976745605469
179,662945357,94.74518585205078,52.82097625732422,93.43411254882812,-9.41021537780762,6.26789331436157,-0.35878035426140,143.83967590332031,-107.05931854248047,56.28094100952148
180,662953690,94.81064605712891,52.48309326171875,92.02888488769531,-9.40037250518799,5.92121744155884,-0.80866134166718,140.56663513183594,-98.42632293701172,51.82346725463867
181,662962023,94.91359710693359,52.17300796508789,90.72505187988281,-9.19409656524658,6.47550249099731,-0.83197212219238,134.92921447753906,-91.88576507568359,48.10826873779297
182,662970356,95.02199554443359,51.83904266357422,89.47489166259766,-9.25597190856934,5.91599512100220,-0.38284057378769,130.34829711914062,-87.83221435546875,46.41331481933594
183,662978689,95.18010711669922,51.53965759277344,88.31343841552734,-9.32446575164795,5.88595724105835,-0.12007844448090,127.45414733886719,-82.14474487304688,41.98117828369141
184,662987022,95.33168792724609,51.30906677246094,87.24411010742188,-9.23459148406982,6.09073591232300,0.18200510740280,117.39510345458984,-76.67760467529297,37.80861663818359
185,662995355,95.52779388427734,51.11680984497070,86.26205444335938,-9.27147293090820,5.09328365325928,0.40074792504311,114.41239166259766,-70.67838287353516,32.94903945922852
186,663003688,95.76906585693359,50.93675994873047,85.36864471435547,-9.14333915710449,5.13327741622925,0.59905219078064,111.40820312500000,-64.28637695312500,26.61380195617676
187,663012021,96.00110626220703,50.78503799438477,84.54220581054688,-9.51872062683105,4.28086853027344,0.46605706214905,103.88044738769531,-59.69212341308594,23.03067398071289
188,663020354,96.33431243896484,50.71413421630859,83.82557678222656,-9.89927101135254,3.91681766510010,0.39803737401962,105.84049987792969,-52.22983551025391,17.44848251342773
189,663028687,96.56374359130859,50.64696121215820,83.09813690185547,-10.88048934936523,4.84881544113159,0.27749913930893,94.47472381591797,-52.91443634033203,17.75461769104004
190,663037020,96.80332946777344,50.53729248046875,82.35395050048828,-11.11935901641846,3.75369572639465,0.36135035753250,96.85094451904297,-54.10155868530273,18.13049316406250
191,663045353,97.00825500488281,50.42442703247070,81.59336853027344,-10.86639404296875,5.33036804199219,0.22140717506409,94.10554504394531,-55.33419799804688,18.91442108154297
192,663053686,97.14810180664062,50.33797454833984,80.81491851806641,-10.76657772064209,5.26068115234375,0.58453106880188,88.36635589599609,-56.41014480590820,21.58118247985840
193,663062019,97.27090454101562,50.24648666381836,80.01090240478516,-10.75890541076660,5.20421934127808,0.63541811704636,88.75971984863281,-58.14229202270508,22.89523887634277
194,663070352,97.40414428710938,50.11875534057617,79.20444488525391,-10.61777400970459,5.06449842453003,1.05076289176941,89.40756225585938,-58.85466003417969,21.55860137939453
195,663078685,97.48825073242188,49.98467636108398,78.40294647216797,-10.70392894744873,5.15588760375977,0.47543177008629,82.92710113525391,-58.47066879272461,22.42565536499023
196,663087018,97.57122039794922,49.90280532836914,77.60533905029297,-10.65977001190186,4.10673618316650,0.13653559982777,83.31527709960938,-57.80486297607422,22.29845046997070
197,663095351,97.63275909423828,49.84158325195312,76.80313873291016,-10.50362873077393,3.92234587669373,0.50267052650452,81.24858856201172,-58.38471603393555,20.34675216674805
198,663103684,97.62061309814453,49.73360443115234,76.00651550292969,-10.73219871520996,3.87450194358826,0.94207882881165,70.61878967285156,-58.82627487182617,19.45826148986816
199,663112017,97.53572082519531,49.61524581909180,75.14246368408203,-11.14115619659424,3.25292396545410,0.71786171197891,67.95420837402344,-63.97965240478516,21.37847709655762
200,663120350,97.42324829101562,49.58726119995117,74.28091430664062,-10.47848606109619,4.26115894317627,1.79282462596893,65.78090667724609,-63.59093475341797,17.23848533630371
201,663128683,97.10541534423828,49.53726196289062,73.37542724609375,-10.77130699157715,4.85154628753662,1.00594556331635,45.36405944824219,-66.50559997558594,20.53036689758301
202,663137016,96.91442871093750,49.44464111328125,72.49210357666016,-9.99373626708984,2.69233894348145,1.27683985233307,56.73344039916992,-66.38732147216797,17.83539390563965
203,663145349,96.64443206787109,49.40464019775391,71.66970062255859,-9.18874835968018,4.54419231414795,1.41177177429199,41.64014434814453,-62.54071044921875,10.77560329437256
204,663153682,96.34524536132812,49.40109252929688,70.90251159667969,-9.33321857452393,3.03652977943420,-0.14028236269951,35.13405609130859,-56.60644149780273,13.15501022338867
205,663162015,96.17689514160156,49.45656204223633,70.22495269775391,-9.10405826568604,3.67617011070251,0.55657148361206,42.84220123291016,-50.30587005615234,5.38126468658447
206,663170348,95.97338104248047,49.46174240112305,69.63822937011719,-9.30481147766113,5.27173995971680,0.46057233214378,28.12885665893555,-45.00646591186523,2.60328388214111
207,663178681,95.76612091064453,49.49871444702148,69.10231018066406,-9.99346923828125,5.02945089340210,-0.86696296930313,25.45785713195801,-38.94588851928711,6.21835422515869
208,663187014,95.69230651855469,49.50797271728516,68.60214996337891,-9.71339893341064,5.24152612686157,0.11465848982334,35.82310104370117,-38.34527587890625,1.15141379833221
209,663195347,95.47230529785156,49.55249786376953,68.09185791015625,-10.03776359558105,6.63366222381592,-0.20953103899956,21.66946983337402,-37.00812530517578,5.01158618927002
210,663203680,95.38377380371094,49.52376556396484,67.61580657958984,-10.88920593261719,3.62057161331177,0.17599739134312,31.87231636047363,-36.04448318481445,5.29598379135132
211,663212013,95.24241638183594,49.62875747680664,67.10687255859375,-10.92023563385010,4.11938953399658,1.48761272430420,31.10120201110840,-37.52312469482422,-2.25591444969177
212,663220346,95.05300140380859,49.61615753173828,66.65310668945312,-11.80259513854980,3.95887541770935,-0.09807943552732,17.77581596374512,-34.47753524780273,3.01628494262695
213,663228679,95.03568267822266,49.72719955444336,66.23614501953125,-11.82455635070801,1.57247412204742,0.78777009248734,37.77859115600586,-30.27415084838867,-3.42641019821167
214,663237012,94.89569854736328,49.74798583984375,65.83947753906250,-12.38160991668701,4.45287895202637,0.75321727991104,18.54103660583496,-30.36144065856934,-1.49104464054108
215,663245345,94.82247161865234,49.82271194458008,65.43597412109375,-12.57933998107910,1.78853714466095,-0.65656137466431,30.01767349243164,-28.68799972534180,1.25504815578461
216,663253678,94.84664916992188,49.85201644897461,65.05622863769531,-12.65064811706543,3.35478615760803,0.68808424472809,36.73613357543945,-29.09604644775391,-2.70652031898499
217,663262011,94.69986724853516,49.91988754272461,64.62464904785156,-13.39557075500488,3.76353096961975,-0.02656854502857,23.86881065368652,-30.71508026123047,2.81052541732788
218,663270344,94.70048522949219,49.92487335205078,64.21556091308594,-12.76892471313477,2.65675902366638,0.02504272200167,36.63893127441406,-31.08089828491211,0.29333478212357
219,663278677,94.56712341308594,50.02535629272461,63.71598815917969,-13.62903213500977,4.04670715332031,1.08051657676697,31.83814811706543,-36.17811965942383,-0.20856434106827
220,663287010,94.45229339599609,50.05572891235352,63.23120117187500,-13.42618179321289,3.46034502983093,0.50842362642288,29.80204582214355,-37.08509445190430,-2.41103434562683
221,663295343,94.25907897949219,50.16778182983398,62.65454101562500,-13.56670570373535,3.00522255897522,0.10808864235878,32.01987075805664,-41.96591567993164,-0.83250313997269
222,663303676,94.17656707763672,50.24428176879883,62.13761901855469,-12.56408882141113,2.59491324424744,0.10647518187761,36.74335479736328,-39.84346771240234,-7.96903181076050
223,663312009,93.95485687255859,50.39612960815430,61.54747009277344,-13.51737594604492,3.55498456954956,-0.10015468299389,30.09695243835449,-43.07155609130859,-5.23985290527344
224,663320342,93.84128570556641,50.49053192138672,60.97996902465820,-12.67409229278564,2.18770480155945,-0.47622093558311,37.85434341430664,-43.63033294677734,-10.10037708282471
225,663328675,93.66907501220703,50.70125198364258,60.39736175537109,-13.28594875335693,3.49378681182861,0.31009173393250,35.63052368164062,-42.63249206542969,-12.11099529266357
226,663337008,93.56473541259766,50.82639694213867,59.84859848022461,-13.02059078216553,1.72251081466675,-0.20806978642941,37.45188903808594,-42.12871170043945,-14.12576580047607
227,663345341,93.49518585205078,51.08968734741211,59.31235122680664,-12.71577739715576,2.25456333160400,0.07972762733698,43.99828338623047,-39.05944442749023,-18.32938957214355
228,663353674,93.52209472656250,51.26672363281250,58.84626770019531,-12.72548294067383,1.67132484912872,-0.12122614681721,45.76538085937500,-35.92921447753906,-20.84409904479980
229,663362007,93.55900573730469,51.56326293945312,58.37240219116211,-12.30667018890381,1.36253225803375,-0.45188015699387,51.30784225463867,-34.19417953491211,-22.12741661071777
230,663370340,93.67462158203125,51.77003479003906,57.91342926025391,-12.49542522430420,1.18743002414703,-0.40688636898994,56.02938842773438,-35.31272125244141,-24.41443061828613
231,663378673,93.78957366943359,52.12250518798828,57.40180587768555,-12.74872684478760,0.16884723305702,0.21865426003933,64.59159088134766,-37.05569076538086,-28.05339050292969
232,663387006,94.01305389404297,52.39915466308594,56.97967910766602,-12.52349281311035,1.24733781814575,-0.26765590906143,65.82345581054688,-32.86313629150391,-32.83352661132812
233,663395339,94.16287994384766,52.77619552612305,56.44458007812500,-12.95320701599121,0.20255996286869,-0.05642740428448,71.48982238769531,-38.51497650146484,-30.12869834899902
234,663403672,94.46930694580078,53.08662414550781,55.95571136474609,-12.29002666473389,0.25674277544022,0.11812659353018,82.51774597167969,-37.76006698608398,-36.33142089843750
235,663412005,94.74396514892578,53.52127075195312,55.47338485717773,-12.43788909912109,1.39446997642517,0.58815783262253,81.94573974609375,-34.80881500244141,-36.46005249023438
236,663420338,95.04914093017578,53.79060745239258,54.95538330078125,-12.59889888763428,1.59519577026367,0.62135809659958,85.61873626708984,-39.18057250976562,-30.92587852478027
237,663428671,95.46030426025391,54.25719070434570,54.52650833129883,-11.29892253875732,0.48850968480110,0.06638883799314,93.69763946533203,-31.03239822387695,-39.89547348022461
238,663437004,95.89279174804688,54.51950836181641,54.07307052612305,-12.17432689666748,3.06082057952881,0.97277176380157,95.05799865722656,-34.38199996948242,-30.07838439941406
239,663445337,96.34188842773438,54.95341491699219,53.62331390380859,-10.87731742858887,0.38605481386185,-0.10121414810419,100.77230834960938,-31.93429756164551,-35.16341781616211
240,663453670,97.01564025878906,55.27889633178711,53.33988571166992,-9.75594806671143,1.79238545894623,-0.64332950115204,107.66326904296875,-23.62307739257812,-38.44178009033203
241,663462003,97.59201812744141,55.69938659667969,52.97959899902344,-9.87804222106934,2.64583706855774,-0.76033568382263,107.59561157226562,-25.75107765197754,-33.52931213378906
242,663470336,98.24382019042969,55.98192977905273,52.63684463500977,-9.47832584381104,1.54520785808563,-1.47061800956726,111.15818023681641,-27.32736587524414,-32.33152389526367
243,663478669,98.84875488281250,56.39770889282227,52.22322082519531,-9.49091815948486,2.84970140457153,-1.61625337600708,116.58364105224609,-29.44584655761719,-31.92083168029785
244,663487002,99.59186553955078,56.67632675170898,51.92633819580078,-9.35805130004883,2.46453595161438,-2.07437205314636,117.79266357421875,-24.55005645751953,-31.80505371093750
245,663495335,100.27686309814453,57.05586624145508,51.58007812500000,-8.95850467681885,3.22609686851501,-1.90294778347015,119.63345336914062,-24.65851020812988,-27.83369445800781
246,663503668,101.00131988525391,57.30099105834961,51.22234344482422,-8.76453876495361,2.99278903007507,-1.76185774803162,121.90323638916016,-28.12205696105957,-26.58148956298828
247,663512001,101.62989807128906,57.64918899536133,50.75725936889648,-8.46032619476318,3.41905736923218,-1.27013421058655,125.05206298828125,-31.74682617187500,-22.29159927368164
248,663520334,102.30503845214844,57.84792709350586,50.31035614013672,-7.71707105636597,3.87295842170715,-1.44949400424957,125.25807189941406,-32.78631973266602,-19.38390541076660
249,663528667,102.81193542480469,58.11672210693359,49.73814773559570,-7.29650402069092,5.08786106109619,-0.78484886884689,121.61135864257812,-36.32425689697266,-11.22889041900635
250,663537000,103.34065246582031,58.25909805297852,49.18669128417969,-5.97468376159668,4.11780405044556,-1.47261238098145,118.55951690673828,-37.70563125610352,-10.75252914428711
251,663545333,103.81831359863281,58.49296951293945,48.63644409179688,-5.05133485794067,5.31897974014282,-1.63582515716553,116.16754150390625,-33.70155334472656,-7.46466016769409
252,663553666,104.32234191894531,58.55483627319336,48.10341644287109,-5.14488220214844,5.77312660217285,-1.13556587696075,113.90999603271484,-34.07761001586914,-1.09859526157379
253,663561999,104.71938323974609,58.60443115234375,47.48553085327148,-4.79830980300903,5.15272665023804,-1.41166913509369,109.81087493896484,-38.73470687866211,1.96302139759064
254,663570332,105.05946350097656,58.79721832275391,46.88729476928711,-3.89155149459839,5.21858930587769,-2.07337164878845,104.88551330566406,-35.06261444091797,-2.09919881820679
255,663578665,105.44644927978516,58.97698211669922,46.37559127807617,-3.68854546546936,5.62513780593872,-2.18453073501587,101.71214294433594,-29.37375450134277,-2.43887019157410
256,663586998,105.83159637451172,59.01413345336914,45.89302062988281,-4.12457847595215,6.01782608032227,-2.14544320106506,94.71155548095703,-29.83837127685547,1.70261883735657
257,663595331,106.08312225341797,59.02312850952148,45.33087158203125,-4.21730375289917,6.23485708236694,-2.07908177375793,86.89636230468750,-33.54177474975586,6.51013803482056
258,663603664,106.18470764160156,59.12467956542969,44.65680313110352,-3.90281891822815,6.08373451232910,-2.12708568572998,84.31884002685547,-36.29324722290039,8.83964157104492
259,663611997,106.20246887207031,59.19955062866211,43.91869354248047,-3.61933112144470,6.73384666442871,-2.13421368598938,80.90774536132812,-39.18254470825195,12.30908584594727
260,663620330,106.20669555664062,59.13991165161133,43.15658187866211,-3.33086204528809,6.23664903640747,-2.16146969795227,77.88219451904297,-42.95392990112305,17.88652229309082
261,663628663,106.16050720214844,59.06710052490234,42.35744476318359,-3.04075694084167,5.68289232254028,-2.06741857528687,75.61035156250000,-44.74832153320312,20.08677291870117
262,663636996,106.01311492919922,59.06983947753906,41.50837707519531,-2.94004750251770,5.28678512573242,-2.11881351470947,72.55823516845703,-43.51335525512695,21.42949867248535
263,663645329,105.88160705566406,59.05430984497070,40.67728042602539,-3.10046529769897,5.24595546722412,-2.20918965339661,72.57848358154297,-42.04541397094727,22.44349288940430
264,663653662,105.87551116943359,58.92042160034180,39.96731185913086,-3.52749371528625,5.31066322326660,-2.36443710327148,71.12411499023438,-37.79177474975586,25.38089561462402
265,663661995,105.90104675292969,58.74660110473633,39.31890869140625,-4.13030815124512,5.67395496368408,-2.53747892379761,68.49360656738281,-32.94346618652344,29.03390884399414
266,663670328,105.83714294433594,58.62790679931641,38.65880203247070,-4.54339265823364,5.58942413330078,-2.58038711547852,62.88062667846680,-29.09511375427246,30.68460083007812
267,663678661,105.75605010986328,58.49443054199219,38.01255798339844,-4.90104484558105,5.61049747467041,-2.51894545555115,59.22919464111328,-28.15766334533691,31.60168457031250
268,663686994,105.75205230712891,58.28438186645508,37.45361328125000,-5.32035684585571,5.94741535186768,-2.41667389869690,55.47006225585938,-26.98121452331543,31.71153068542480
269,663695327,105.73196411132812,58.08544540405273,36.92431640625000,-5.50808095932007,6.57779026031494,-2.27683711051941,50.40312957763672,-25.70383644104004,29.99437713623047
270,663703660,105.55516815185547,57.97605514526367,36.30416488647461,-5.64539194107056,7.02439832687378,-2.39740324020386,44.73099899291992,-28.19676208496094,27.78999519348145
271,663711993,105.30733489990234,57.88894271850586,35.66685104370117,-5.66395902633667,6.64381504058838,-2.76072907447815,37.83039474487305,-30.33863449096680,24.86571884155273
272,663720326,105.11121368408203,57.75279617309570,35.07168197631836,-5.86916112899780,6.74425697326660,-3.43366503715515,35.73563385009766,-32.42645645141602,23.64491653442383
273,663728659,104.88108062744141,57.60202026367188,34.46158218383789,-6.32849645614624,7.22609472274780,-3.41116380691528,33.08301544189453,-33.10664749145508,25.52295684814453
274,663736992,104.55699920654297,57.52578735351562,33.77407455444336,-6.69151735305786,6.55058670043945,-3.47160553932190,33.47187042236328,-34.74250411987305,23.45637321472168
275,663745325,104.23133087158203,57.44747161865234,33.07653427124023,-6.68221950531006,6.97514772415161,-3.47468328475952,34.10360336303711,-35.77832794189453,23.20896530151367
276,663753658,104.01282501220703,57.31017684936523,32.47137832641602,-6.81209039688110,7.36028718948364,-3.14235186576843,33.75344848632812,-33.96959304809570,23.42207336425781
277,663761991,103.81182098388672,57.17318344116211,31.89874267578125,-6.96725893020630,7.45439243316650,-2.62689971923828,32.49111938476562,-32.13772583007812,22.80309867858887
278,663770324,103.49569702148438,57.07730102539062,31.24435615539551,-7.44851732254028,8.29245758056641,-1.58178567886353,30.54077148437500,-33.53734207153320,23.60377693176270
279,663778657,103.07153320312500,56.98341751098633,30.50287055969238,-7.49905109405518,8.37680912017822,-1.73500490188599,26.24528312683105,-39.51347351074219,24.00474929809570
280,663786990,102.65194702148438,56.83748245239258,29.77282142639160,-7.51848554611206,8.33110427856445,-2.05462193489075,21.85159111022949,-42.77149963378906,25.61149024963379
281,663795323,102.18556976318359,56.69353103637695,29.04222679138184,-7.45048093795776,8.80243492126465,-2.20322155952454,16.18288040161133,-43.22723007202148,25.10180473327637
282,663803656,101.58188629150391,56.59091949462891,28.27055549621582,-7.06571006774902,8.29374313354492,-3.02044486999512,7.44259166717529,-42.45839309692383,23.90005874633789
283,663811989,100.95563507080078,56.47721099853516,27.53379821777344,-6.69594383239746,8.36898994445801,-3.67413187026978,1.05894565582275,-40.51212692260742,23.81088638305664
284,663820322,100.41300201416016,56.32432937622070,26.91829109191895,-6.46493768692017,8.59416294097900,-3.98268580436707,-4.79754114151001,-36.81938171386719,23.49151802062988
285,663828655,99.87505340576172,56.15862655639648,26.31623840332031,-6.50023412704468,8.71973037719727,-3.77894330024719,-5.68223285675049,-36.04916000366211,24.53788566589355
286,663836988,99.24324035644531,56.01640701293945,25.61928558349609,-6.69450187683105,8.81080245971680,-3.42400026321411,-4.09929752349854,-38.93638992309570,24.94646644592285
287,663845321,98.59674835205078,55.87579727172852,24.90764045715332,-6.76447200775146,8.72835540771484,-2.93078732490540,-4.68863105773926,-40.67792892456055,23.96479988098145
288,663853654,98.03553771972656,55.72317504882812,24.29020500183105,-6.88159704208374,8.82787704467773,-2.75640130043030,-7.27134418487549,-38.62488555908203,22.03570938110352
289,663861987,97.48206329345703,55.56908416748047,23.73786926269531,-7.42397880554199,9.36004734039307,-2.75066280364990,-12.89441585540771,-34.60884094238281,21.26023101806641
290,663870320,96.80214691162109,55.47223281860352,23.13358306884766,-8.50973510742188,7.77636098861694,-2.98094606399536,-19.80328178405762,-35.62723922729492,16.03758621215820
291,663878653,96.11464691162109,55.46487808227539,22.54314804077148,-7.44730234146118,7.79083967208862,-4.07685995101929,-22.27672386169434,-36.38101959228516,4.45767831802368
292,663886986,95.62414550781250,55.45737457275391,22.23467445373535,-7.03023576736450,8.44488716125488,-4.32666444778442,-29.57936477661133,-20.85629844665527,0.93253856897354
293,663895319,95.18778228759766,55.48466110229492,22.00291252136230,-7.38131284713745,7.26039028167725,-4.18281316757202,-30.65469932556152,-16.05892372131348,-3.88331389427185
294,663903652,94.68982696533203,55.54842758178711,21.70923805236816,-7.06293678283691,7.43939161300659,-4.63071107864380,-29.16710090637207,-17.47395896911621,-7.16626882553101
295,663911985,94.24690246582031,55.62569427490234,21.44002532958984,-7.18736886978149,7.04971075057983,-4.30586099624634,-25.25313568115234,-16.23468780517578,-9.33502674102783
296,663920318,93.86941528320312,55.70230484008789,21.20825004577637,-7.76946020126343,6.53588199615479,-4.29269552230835,-23.54542732238770,-16.37461471557617,-10.16654014587402
297,663928651,93.52838134765625,55.78395080566406,20.97363662719727,-7.14926624298096,6.60371541976929,-4.67003631591797,-18.86367988586426,-16.51285743713379,-10.86506652832031
298,663936984,93.18675994873047,55.81992721557617,20.74462699890137,-7.43882036209106,7.66617202758789,-4.20748186111450,-17.36091423034668,-13.33847713470459,-5.09750366210938
299,663945317,92.85908508300781,55.82942962646484,20.47838211059570,-7.42617082595825,6.95356702804565,-4.56593275070190,-12.30944919586182,-16.01698112487793,-2.12148666381836
300,663953650,92.64683532714844,55.80225372314453,20.26760673522949,-7.04418849945068,8.01264667510986,-4.07136249542236,-5.75914335250854,-14.11809539794922,1.83549058437347
301,663961983,92.47752380371094,55.73898696899414,20.08583641052246,-7.31325340270996,8.15017223358154,-3.68878674507141,-3.49082446098328,-11.98763275146484,6.02651882171631
302,663970316,92.27614593505859,55.66421508789062,19.84708213806152,-7.41075515747070,8.21388912200928,-3.28213739395142,-0.22101244330406,-14.16122817993164,7.44467592239380
303,663978649,92.03683471679688,55.60209655761719,19.56196212768555,-7.54749202728271,7.92644882202148,-3.48741245269775,-0.46849736571312,-17.68283081054688,5.68029165267944
304,663986982,91.81497955322266,55.55311203002930,19.27453422546387,-7.43057012557983,8.00967407226562,-4.17093420028687,0.61476743221283,-19.36842727661133,4.42783212661743
305,663995315,91.61214447021484,55.49900817871094,19.00790786743164,-7.83645868301392,8.38009452819824,-3.67913413047791,1.77885735034943,-16.88340568542480,4.26274681091309
306,664003648,91.36218261718750,55.48036193847656,18.75897216796875,-8.34932613372803,8.25524425506592,-3.44195961952209,-6.59478378295898,-16.93889236450195,0.57562887668610
307,664011981,91.08950805664062,55.50203323364258,18.53673744201660,-7.59665298461914,8.03454017639160,-4.16286849975586,-11.25780391693115,-14.41819095611572,-5.29911231994629
308,664020314,90.91459655761719,55.53068161010742,18.47171401977539,-7.21840238571167,8.80199813842773,-4.10425186157227,-15.77072811126709,-4.55460882186890,-5.45828008651733
309,664028647,90.74571990966797,55.54010009765625,18.42188644409180,-7.18625783920288,9.34993076324463,-3.96924638748169,-16.14802360534668,-2.96811413764954,-4.40028285980225
310,664036980,90.50949096679688,55.57051086425781,18.34177970886230,-6.97270727157593,8.74045562744141,-5.05692672729492,-21.63434410095215,-5.55400180816650,-5.68980789184570
311,664045313,90.32335662841797,55.57306671142578,18.29012298583984,-6.33652544021606,9.83597087860107,-4.54957866668701,-18.35389709472656,-3.41298222541809,-3.96983575820923
312,664053646,90.09117126464844,55.57418060302734,18.24345779418945,-7.28963756561279,9.12572193145752,-4.30914211273193,-24.45478248596191,-3.24141907691956,-2.21751523017883
313,664061979,89.85524749755859,55.55945205688477,18.12740516662598,-6.95663022994995,8.44116973876953,-4.44250726699829,-18.27334403991699,-8.09498596191406,-2.34322977066040
314,664070312,89.60334014892578,55.54392623901367,18.02389717102051,-7.48517513275146,8.65933895111084,-3.83476138114929,-21.19869422912598,-7.10840082168579,-0.26842445135117
315,664078645,89.40041351318359,55.53082275390625,17.95176506042480,-7.42148590087891,8.00027656555176,-4.08951044082642,-18.94960784912109,-5.42792654037476,-2.87749123573303
316,664086978,89.17961120605469,55.53154754638672,17.90918731689453,-7.85745668411255,8.09668636322021,-4.03666210174561,-23.49657630920410,-2.96071243286133,-2.21784806251526
317,664095311,88.99797058105469,55.52064895629883,17.89539909362793,-7.59614324569702,7.93673944473267,-4.08962202072144,-22.45394515991211,-1.76347649097443,-3.34656500816345
318,664103644,88.82265472412109,55.52616119384766,17.90800666809082,-7.69555711746216,8.00867557525635,-4.35758399963379,-23.49629592895508,0.79980486631393,-2.74199223518372
319,664111977,88.66518402099609,55.49537658691406,17.91746520996094,-7.96588993072510,8.42805862426758,-4.26366186141968,-22.14194107055664,-0.53842425346375,-1.15075838565826
320,664120310,88.47727203369141,55.49670028686523,17.90219497680664,-7.86150121688843,7.80634117126465,-4.69925308227539,-22.25195121765137,-1.10096418857574,-2.28062820434570
321,664128643,88.35710144042969,55.47906494140625,17.94126510620117,-7.67467975616455,8.04664325714111,-4.62425041198730,-20.90100669860840,1.18304514884949,-2.89050316810608
322,664136976,88.20884704589844,55.49139785766602,17.96681404113770,-7.84309053421021,7.64360427856445,-4.90954208374023,-21.52804183959961,1.71848535537720,-3.52233004570007
323,664145309,88.16974639892578,55.49024200439453,18.05513191223145,-7.29821395874023,7.81528711318970,-4.81537532806396,-16.36023712158203,4.24463796615601,-4.95705938339233
324,664153642,88.06537628173828,55.49397277832031,18.09930801391602,-8.30369663238525,8.23976325988770,-4.20841503143311,-18.10172462463379,2.95670318603516,-2.44509696960449
325,664161975,87.97560882568359,55.48862075805664,18.10826301574707,-7.51707458496094,6.78490686416626,-5.01212024688721,-14.85217475891113,-1.42547106742859,-4.75501489639282
326,664170308,87.95298767089844,55.50262832641602,18.15991020202637,-6.99530792236328,8.22260856628418,-4.37580585479736,-9.02800750732422,3.51109719276428,-3.65232110023499
327,664178641,87.89678955078125,55.45429229736328,18.18850326538086,-8.43304252624512,7.79436588287354,-4.25940227508545,-12.92111682891846,-0.46824112534523,0.47289013862610
328,664186974,87.78304290771484,55.44544219970703,18.12386322021484,-7.63133144378662,6.43364715576172,-5.18013811111450,-8.46759223937988,-4.49113607406616,-1.20426595211029
329,664195307,87.85378265380859,55.40671157836914,18.19663429260254,-7.12667369842529,8.46245479583740,-4.07285499572754,-2.12235736846924,2.48908901214600,-0.34347411990166
330,664203640,87.77388000488281,55.35114288330078,18.19613647460938,-8.82620048522949,8.11004447937012,-4.22557258605957,-10.74620819091797,-0.34360215067863,4.56179237365723
331,664211973,87.75194549560547,55.28698348999023,18.17441940307617,-7.66152286529541,7.13789367675781,-4.70519351959229,-3.86317777633667,-4.02354860305786,2.65763068199158
332,664220306,87.74391937255859,55.23616409301758,18.19485282897949,-7.32514572143555,8.55241298675537,-3.82675194740295,-4.18271541595459,1.10522866249084,4.05096817016602
333,664228639,87.74223327636719,55.15584182739258,18.24639129638672,-7.88857650756836,7.65169334411621,-4.52550983428955,-8.55916404724121,0.99977493286133,5.05192136764526
334,664236972,87.69424438476562,55.08292770385742,18.24294281005859,-7.46611881256104,7.96081495285034,-4.48192882537842,-6.62306022644043,-0.63588619232178,6.63085985183716
335,664245305,87.72049713134766,54.99451828002930,18.31461334228516,-7.63575601577759,7.49723625183105,-4.48258352279663,-7.04720640182495,2.46977615356445,6.36319112777710
336,664253638,87.72461700439453,54.94178771972656,18.34193038940430,-7.81505489349365,7.57828092575073,-4.44162464141846,-3.39523077011108,1.57957875728607,4.29276657104492
337,664261971,87.74418640136719,54.87253570556641,18.42168617248535,-7.42178773880005,7.38899421691895,-4.78518152236938,-8.49330997467041,3.28231120109558,4.37337541580200
338,664270304,87.77851104736328,54.81360244750977,18.54850959777832,-7.06786680221558,7.41925764083862,-4.77461624145508,-9.52815055847168,8.43241214752197,5.30435037612915
339,664278637,87.87459564208984,54.73072814941406,18.72527885437012,-6.94992828369141,7.54794406890869,-5.17410707473755,-8.66582298278809,10.08865547180176,6.50171422958374
340,664286970,87.90377807617188,54.64802932739258,18.85264587402344,-7.08523368835449,7.40798425674438,-5.48752307891846,-10.17424488067627,8.41517353057861,8.13626098632812
341,664295303,87.96965026855469,54.54375839233398,18.98625183105469,-7.02251672744751,6.98213911056519,-5.67438793182373,-7.92687749862671,7.19747400283813,9.15114784240723
342,664303636,88.02501678466797,54.44108963012695,19.07548522949219,-6.94695472717285,7.09909296035767,-5.73052883148193,-3.27517700195312,5.73781871795654,10.42425060272217
343,664311969,88.10282897949219,54.31868743896484,19.17320823669434,-7.01657676696777,6.77082586288452,-5.81466293334961,-2.84513998031616,4.77795171737671,11.42136383056641
344,664320302,88.15346527099609,54.21026229858398,19.24442672729492,-6.83758831024170,6.54852008819580,-5.77804708480835,-2.06521177291870,4.51671171188354,11.05973911285400
345,664328635,88.27034759521484,54.10454940795898,19.35936737060547,-6.70856428146362,6.58483886718750,-5.73594331741333,0.28106501698494,6.22431135177612,9.63256645202637
346,664336968,88.36248016357422,54.01386260986328,19.42158126831055,-7.05455255508423,6.72920131683350,-5.64742040634155,3.80494379997253,4.01247072219849,8.89579963684082
347,664345301,88.48979949951172,53.92352676391602,19.44601631164551,-7.49259233474731,6.03294420242310,-6.16507148742676,10.44110584259033,0.05396920442581,7.74308252334595
348,664353634,88.64634704589844,53.83959197998047,19.39838218688965,-7.80105972290039,6.24097537994385,-5.72037315368652,22.19889450073242,-3.66802382469177,7.87469100952148
349,664361967,88.86111450195312,53.75093078613281,19.37034797668457,-8.07468128204346,5.78688478469849,-5.51518297195435,26.09708023071289,-3.52438020706177,7.62577247619629
350,664370300,89.07542419433594,53.65780258178711,19.27876663208008,-8.53031539916992,5.84252452850342,-4.93677616119385,33.36938476562500,-6.75321197509766,8.94227027893066
351,664378633,89.29186248779297,53.57943725585938,19.18165969848633,-8.62697315216064,5.70449304580688,-5.03960514068604,34.15307617187500,-7.09447050094604,7.19678688049316
352,664386966,89.56985473632812,53.50851058959961,19.10883331298828,-8.27191829681396,6.00958108901978,-5.17444896697998,38.07921981811523,-6.51128816604614,5.65908861160278
353,664395299,89.89231872558594,53.44877243041992,19.08271980285645,-7.92841768264771,6.51170921325684,-5.25475978851318,38.98673629760742,-3.05520629882812,4.49607276916504
354,664403632,90.20676422119141,53.40097045898438,19.05463600158691,-8.06859874725342,7.00765371322632,-5.19348669052124,39.23444747924805,-2.05238175392151,3.62306141853333
355,664411965,90.53732299804688,53.36217498779297,19.02009010314941,-7.95459699630737,7.37649297714233,-5.50954580307007,41.78907394409180,-2.49054002761841,2.56137633323669
356,664420298,90.83244323730469,53.31378173828125,18.94735527038574,-8.01755714416504,8.12265872955322,-5.15185165405273,40.25674438476562,-6.24320936203003,3.29081892967224
357,664428631,91.04387664794922,53.27916717529297,18.81734466552734,-8.09161376953125,7.54187345504761,-5.74830245971680,35.77408981323242,-10.29807567596436,1.76513028144836
358,664436964,91.25115966796875,53.29001235961914,18.63292312622070,-7.32401227951050,7.13892889022827,-6.58540058135986,41.40909194946289,-13.30314636230469,-3.15379643440247
359,664445297,91.52768707275391,53.32743453979492,18.52824020385742,-6.32934951782227,8.72020912170410,-5.97508716583252,42.05216217041016,-7.66155147552490,-6.41974496841431
360,664453630,91.81798553466797,53.36368942260742,18.55496978759766,-6.74207115173340,9.16742324829102,-5.72871875762939,30.18796157836914,0.76714682579041,-6.90015935897827
361,664461963,91.96249389648438,53.40059661865234,18.47634887695312,-7.41787815093994,8.64846706390381,-5.33530902862549,22.87221908569336,-6.75464391708374,-6.76537609100342
362,664470296,91.95470428466797,53.46664810180664,18.26164436340332,-6.87650251388550,7.93484210968018,-4.85417938232422,18.55152893066406,-15.66274261474609,-9.51521873474121
363,664478629,91.96337127685547,53.58465957641602,18.09794235229492,-5.72919130325317,7.64604330062866,-4.86902379989624,15.63332462310791,-12.20469093322754,-15.86712074279785
364,664486962,92.08970642089844,53.72687530517578,18.06300163269043,-5.46310949325562,8.27770996093750,-4.25272512435913,16.53983688354492,-4.03292512893677,-19.49058723449707
365,664495295,92.23242950439453,53.87113189697266,18.10777473449707,-5.87887811660767,8.37393093109131,-3.90460610389709,10.83848667144775,1.62025451660156,-19.95494270324707
366,664503628,92.28280639648438,54.01618957519531,18.03599548339844,-6.45646667480469,7.66717386245728,-3.21184825897217,11.80206966400146,-5.80376482009888,-19.31453704833984
367,664511961,92.28468322753906,54.19085693359375,17.91725730895996,-5.85579061508179,7.35644340515137,-2.91793656349182,10.56226634979248,-9.23300170898438,-22.72658729553223
368,664520294,92.30657196044922,54.37549209594727,17.83879852294922,-5.59093523025513,7.28292417526245,-2.44579410552979,8.37275981903076,-7.23475742340088,-24.46779441833496
369,664528627,92.27107238769531,54.54869079589844,17.75628852844238,-5.58794212341309,7.16118144989014,-1.61686551570892,1.95505869388580,-7.36830997467041,-23.08339309692383
370,664536960,92.07363128662109,54.69832229614258,17.50008201599121,-5.87319755554199,7.09039211273193,-0.48366010189056,0.16467401385307,-18.52195930480957,-19.39204978942871
371,664545293,91.62680053710938,54.81551361083984,16.98501014709473,-5.58680629730225,7.16266107559204,0.01210615597665,-4.34954643249512,-36.15599060058594,-15.02342319488525
372,664553626,91.02203369140625,54.89814758300781,16.33525657653809,-4.65452527999878,6.67188167572021,-0.10387013852596,-10.59136676788330,-45.81349945068359,-11.42119216918945
373,664561959,90.35463714599609,54.95376205444336,15.68792152404785,-3.87890267372131,6.49989366531372,0.09136994183064,-18.22724533081055,-45.34084320068359,-8.68172073364258
374,664570292,89.60310363769531,54.98680877685547,15.01756954193115,-3.70621609687805,6.12152719497681,0.55475151538849,-25.52758407592773,-46.22795867919922,-6.10830640792847
375,664578625,88.74318695068359,54.99946212768555,14.30330467224121,-3.43305277824402,5.55656099319458,0.60372698307037,-34.19399261474609,-49.19783401489258,-4.34852933883667
376,664586958,87.83267211914062,54.99579620361328,13.62317943572998,-3.19145822525024,4.73612499237061,0.23379071056843,-44.06985092163086,-47.35803604125977,-3.52011322975159
377,664595291,86.92904663085938,55.00670242309570,13.05032157897949,-3.21586370468140,3.33883738517761,-0.21749481558800,-53.73430633544922,-39.80835342407227,-5.66828632354736
378,664603624,86.05956268310547,55.03925704956055,12.62542247772217,-3.16541910171509,2.47009849548340,-0.63447505235672,-63.77379989624023,-28.99184226989746,-7.81415653228760
379,664611957,85.22909545898438,55.06914901733398,12.33078956604004,-3.67359876632690,1.83279144763947,-0.90654635429382,-71.88652038574219,-19.97406768798828,-7.23717117309570
380,664620290,84.44091796875000,55.07698822021484,12.07994270324707,-4.46932601928711,1.34335565567017,-0.92750453948975,-71.49139404296875,-17.50970458984375,-5.02147722244263
381,664628623,83.71006011962891,55.07310867309570,11.85084819793701,-4.92236518859863,1.12174069881439,-0.77289146184921,-66.72373199462891,-16.11127853393555,-3.63289451599121
382,664636956,83.05046844482422,55.06632995605469,11.67992877960205,-5.11368227005005,1.28501677513123,-0.80096811056137,-63.54728698730469,-11.81505680084229,-2.67253494262695
383,664645289,82.47882080078125,55.04957199096680,11.58469963073730,-5.51005649566650,1.70349991321564,-0.83813279867172,-60.44407272338867,-6.80128097534180,-0.95332664251328
384,664653622,81.97363281250000,55.00126266479492,11.53054237365723,-6.00704574584961,2.43112444877625,-0.64395868778229,-56.83516311645508,-4.86004543304443,2.83570861816406
385,664661955,81.49236297607422,54.90630722045898,11.45809078216553,-6.56252622604370,2.90327095985413,-0.34296691417694,-52.14341735839844,-6.95954513549805,8.20602607727051
386,664670288,81.02890014648438,54.77276611328125,11.36569404602051,-7.06283521652222,3.51184487342834,-0.16091494262218,-47.76387786865234,-8.80236434936523,12.74152183532715
387,664678621,80.56173706054688,54.60727310180664,11.25681591033936,-7.67341518402100,3.97587776184082,0.53328347206116,-46.61118316650391,-10.68721771240234,16.26876449584961
388,664686954,80.11148071289062,54.43790435791016,11.16365242004395,-7.94653940200806,4.00189018249512,0.74654161930084,-46.41042327880859,-10.16929626464844,16.63983917236328
389,664695287,79.66795349121094,54.28057861328125,11.07191753387451,-8.10628986358643,4.69698524475098,0.32905021309853,-45.74480438232422,-9.95513534545898,15.19601154327393
390,664703620,79.19049835205078,54.12376403808594,10.97993087768555,-8.04677200317383,4.99476814270020,-0.10142298042774,-49.55578994750977,-9.85695743560791,15.18663883209229
391,664711953,78.70561981201172,53.97441482543945,10.90882205963135,-7.88213253021240,4.89204692840576,-0.66700106859207,-52.49275970458984,-8.40813827514648,14.50125503540039
392,664720286,78.22967529296875,53.83081436157227,10.87038612365723,-7.75173187255859,5.33729267120361,-0.99868977069855,-54.82155227661133,-6.42564392089844,14.09857654571533
393,664728619,77.78102111816406,53.68924713134766,10.85190868377686,-7.98047018051147,5.48783063888550,-1.44010090827942,-53.49615478515625,-5.12051677703857,14.12126922607422
394,664736952,77.36355590820312,53.56689834594727,10.87133693695068,-8.31284141540527,5.78646945953369,-1.94201540946960,-53.18461990356445,-1.86637306213379,12.50743675231934
395,664745285,76.97103881835938,53.44602584838867,10.89314651489258,-8.97168350219727,5.87486314773560,-2.23320221900940,-50.42088317871094,-1.76130318641663,12.36104965209961
396,664753618,76.60038757324219,53.33338165283203,10.92401504516602,-9.25728130340576,6.14168548583984,-2.14235901832581,-48.89190673828125,-1.26991820335388,11.44651412963867
397,664761951,76.22726440429688,53.21943283081055,10.93936061859131,-9.82553386688232,5.94418573379517,-2.08299374580383,-47.71379470825195,-2.49171948432922,11.35053634643555
398,664770284,75.88611602783203,53.11361694335938,10.95081138610840,-9.95170307159424,5.65729761123657,-2.64527153968811,-43.25466537475586,-2.31815624237061,10.39153385162354
399,664778617,75.58242797851562,53.00908279418945,11.00569152832031,-10.15526676177979,6.77546787261963,-2.20779371261597,-42.91993713378906,0.68794828653336,11.00456142425537
400,664786950,75.24264526367188,52.91963195800781,11.05103874206543,-10.38905143737793,6.00688743591309,-2.08924698829651,-46.59380722045898,0.08903525024652,9.03712940216064
401,664795283,74.93508911132812,52.86039352416992,11.13717174530029,-9.95179080963135,6.15686321258545,-2.46381998062134,-46.63853073120117,3.79585766792297,6.31028413772583
402,664803616,74.66289520263672,52.82780838012695,11.27116107940674,-9.81199264526367,6.38074970245361,-2.55619263648987,-46.69083404541016,8.28673362731934,4.19052314758301
403,664811949,74.42356872558594,52.78921127319336,11.46550559997559,-9.73643016815186,7.62817144393921,-2.37216114997864,-48.79762268066406,11.92119979858398,6.07107448577881
404,664820282,74.15924072265625,52.74275588989258,11.66154289245605,-10.09265899658203,7.02851486206055,-2.84079933166504,-51.66628265380859,12.13264846801758,7.09003829956055
405,664828615,73.96115875244141,52.71451950073242,11.94555950164795,-9.67147350311279,7.54074525833130,-3.44131088256836,-52.41395187377930,18.46258544921875,6.77395868301392
406,664836948,73.80879211425781,52.67494201660156,12.29181671142578,-9.87467384338379,8.00061511993408,-3.16786313056946,-52.55176544189453,22.81325721740723,9.42102050781250
407,664845281,73.67465972900391,52.63870620727539,12.69229316711426,-9.85455417633057,8.17866611480713,-3.26799201965332,-55.85229873657227,26.28050231933594,10.16517162322998
408,664853614,73.57217407226562,52.60337829589844,13.11945438385010,-10.16520881652832,7.82034063339233,-3.34596681594849,-54.24826049804688,28.59977531433105,10.71047592163086
409,664861947,73.51939392089844,52.56289291381836,13.58533477783203,-10.15821743011475,8.46532630920410,-3.48316884040833,-52.31362915039062,30.68334388732910,12.09533882141113
410,664870280,73.48410797119141,52.51958084106445,14.10032844543457,-10.50095653533936,8.54767513275146,-3.51300764083862,-54.50726318359375,34.50125122070312,13.52710914611816
411,664878613,73.48771667480469,52.49436950683594,14.69589996337891,-10.41545677185059,8.42793178558350,-4.06786012649536,-57.87976074218750,40.29446792602539,13.05865573883057
412,664886946,73.54415130615234,52.48074340820312,15.35365581512451,-10.58454322814941,8.82978820800781,-4.33987903594971,-57.05760955810547,45.56095123291016,13.07323551177979
413,664895279,73.63554382324219,52.46798324584961,16.08153343200684,-10.96167373657227,8.65024757385254,-4.30387544631958,-59.94539642333984,50.01235580444336,14.27463626861572
414,664903612,73.72557830810547,52.45200729370117,16.81047630310059,-11.15650749206543,8.44895935058594,-4.37918758392334,-59.77515792846680,50.54917907714844,14.68572139739990
415,664911945,73.86586761474609,52.43136215209961,17.57563400268555,-11.31378650665283,8.56465625762939,-4.50377655029297,-57.63590240478516,52.42682266235352,15.75904273986816
416,664920278,74.00239562988281,52.40679931640625,18.34403800964355,-11.58924484252930,9.04294681549072,-4.20216608047485,-57.91189193725586,53.15993118286133,16.26351547241211
417,664928611,74.13428497314453,52.37409210205078,19.15165519714355,-11.50209999084473,8.50676727294922,-4.15879678726196,-62.65314102172852,55.12457275390625,17.75272369384766
418,664936944,74.28028106689453,52.33013534545898,19.97679328918457,-10.75586891174316,8.52598857879639,-4.50750207901001,-62.10518264770508,56.69584655761719,19.40426826477051
419,664945277,74.51221466064453,52.30194854736328,20.89814376831055,-10.27516174316406,8.54747009277344,-4.57796430587769,-61.39890670776367,63.47878265380859,19.17421531677246
420,664953610,74.77638244628906,52.26313781738281,21.83966064453125,-10.06961727142334,8.87809085845947,-3.82410717010498,-58.89715194702148,65.35143280029297,20.66277122497559
421,664961943,75.02687072753906,52.22509002685547,22.75251960754395,-9.63358497619629,8.46830558776855,-3.29787802696228,-58.31213378906250,62.83647155761719,19.58779907226562
422,664970276,75.25511169433594,52.21563720703125,23.63418197631836,-8.74433326721191,7.91934633255005,-2.74995160102844,-57.45603561401367,62.29025268554688,15.58459663391113
423,664978609,75.50457000732422,52.24612426757812,24.52986907958984,-8.03473758697510,7.22173309326172,-2.36143684387207,-56.25222015380859,64.55738830566406,10.94319057464600
424,664986942,75.78487396240234,52.32320022583008,25.44366645812988,-7.20553398132324,6.41524076461792,-1.79678714275360,-54.87425613403320,66.53607177734375,5.34388160705566
425,664995275,76.07508087158203,52.39773178100586,26.31908988952637,-6.94940805435181,6.64161682128906,-0.87489837408066,-50.12638854980469,63.67733001708984,4.58382177352905
426,665003608,76.34370422363281,52.48220443725586,27.12702941894531,-6.67581224441528,6.24347448348999,0.16890646517277,-45.84360122680664,59.74424743652344,2.11364603042603
427,665011941,76.54463958740234,52.59319305419922,27.86252975463867,-6.23385047912598,5.77177619934082,0.73128581047058,-47.68278503417969,54.62105941772461,-2.72329235076904
428,665020274,76.70209503173828,52.73003768920898,28.53884696960449,-5.99299573898315,5.13743400573730,0.98015344142914,-46.85745620727539,51.61600494384766,-6.72001266479492
429,665028607,76.85050201416016,52.85881423950195,29.12887954711914,-5.83890199661255,5.21902227401733,1.29153740406036,-40.27611160278320,44.57448959350586,-7.61230468750000
430,665036940,76.95653533935547,52.95974731445312,29.59569931030273,-6.19060802459717,5.35712242126465,1.52152788639069,-33.18849945068359,35.57543182373047,-6.27692222595215
431,665045273,77.01087188720703,53.00400161743164,29.91515731811523,-6.37593412399292,5.34075593948364,1.26772177219391,-25.74157714843750,23.10368156433105,-2.34228348731995
432,665053606,77.05536651611328,52.98058700561523,30.17261695861816,-6.93343448638916,6.30612039566040,0.84113359451294,-20.56028938293457,17.41612625122070,4.77659654617310
433,665061939,77.15867614746094,52.90019226074219,30.48903656005859,-7.60074806213379,7.10753726959229,0.44110581278801,-19.52035713195801,19.61106872558594,12.14556312561035
434,665070272,77.31340026855469,52.76902770996094,30.88852691650391,-8.45358085632324,6.66305255889893,-0.65747714042664,-20.86383247375488,24.69148826599121,19.61320304870605
435,665078605,77.53353118896484,52.62808227539062,31.35732460021973,-8.93701171875000,6.15187263488770,-1.09343385696411,-19.94653892517090,29.07553100585938,21.56837081909180
436,665086938,77.79660034179688,52.51636505126953,31.89981079101562,-8.66753292083740,6.34417867660522,-1.18901431560516,-21.35861015319824,35.70858383178711,19.41193580627441
437,665095271,78.11518859863281,52.43859481811523,32.53239440917969,-8.54320335388184,6.82717752456665,-1.32623326778412,-23.58309173583984,42.74712753295898,16.42518997192383
438,665103604,78.40869140625000,52.41835021972656,33.13997650146484,-7.88098001480103,6.10066080093384,-1.53920352458954,-23.79756164550781,42.95475769042969,9.28756237030029
439,665111937,78.65763092041016,52.44075012207031,33.65832138061523,-7.01620960235596,5.80827760696411,-1.85992062091827,-21.03253555297852,37.17200088500977,2.56296443939209
440,665120270,78.83371734619141,52.49097824096680,34.02570724487305,-6.31554937362671,5.69542455673218,-1.94188332557678,-15.06065940856934,27.44034957885742,-2.80638790130615
441,665128603,78.94642639160156,52.54876708984375,34.23742294311523,-6.13292074203491,5.24277305603027,-1.90993940830231,-8.24846363067627,15.96448612213135,-6.16889524459839
442,665136936,79.01134490966797,52.56504440307617,34.29381179809570,-6.76231575012207,5.08118724822998,-1.53403604030609,1.18750166893005,4.33203363418579,-3.26459860801697
443,665145269,79.10656738281250,52.54240417480469,34.27664947509766,-7.68244028091431,5.08030414581299,-1.07127654552460,11.44815540313721,-2.30081176757812,0.09192949533463
444,665153602,79.24497985839844,52.50918960571289,34.23116683959961,-8.30577087402344,4.76546621322632,-1.04558360576630,19.71144104003906,-4.09142732620239,1.15525376796722
445,665161935,79.43080139160156,52.46803665161133,34.19535446166992,-8.51751136779785,4.99638986587524,-0.93537694215775,24.09353065490723,-4.03896999359131,2.07057881355286
446,665170268,79.65775299072266,52.45595169067383,34.21735000610352,-8.30682086944580,4.79602003097534,-1.28703129291534,23.91074371337891,1.23642516136169,-0.41888254880905
447,665178601,79.93148803710938,52.45476150512695,34.32047653198242,-8.10016632080078,5.62867784500122,-1.54338192939758,21.43932914733887,6.82980823516846,-0.78304028511047
448,665186934,80.20326232910156,52.47318267822266,34.46696472167969,-7.66351413726807,6.26140260696411,-1.61587309837341,17.44189071655273,10.84609603881836,-2.46799635887146
449,665195267,80.45658111572266,52.51639175415039,34.61946487426758,-6.91599416732788,6.27185344696045,-2.01802635192871,14.65137195587158,11.77391910552979,-5.37421417236328
450,665203600,80.73107147216797,52.57494354248047,34.81020355224609,-6.13031864166260,6.26843118667603,-2.62651824951172,13.16180229187012,14.30004882812500,-6.90717601776123
451,665211933,81.06977081298828,52.61983108520508,35.05198669433594,-5.87125396728516,7.21959209442139,-2.79962921142578,15.97386646270752,17.65961456298828,-4.79438495635986
452,665220266,81.40770721435547,52.62745285034180,35.28865051269531,-6.13438844680786,7.70726490020752,-2.53088569641113,16.74954032897949,17.09320640563965,-0.41416954994202
453,665228599,81.69075775146484,52.61541748046875,35.44322204589844,-6.35112571716309,6.94473314285278,-1.99240899085999,17.99631118774414,10.84376525878906,0.94790637493134
454,665236932,81.98757934570312,52.58542251586914,35.55807495117188,-6.29370450973511,6.01678037643433,-2.37667131423950,23.01860046386719,7.15592861175537,2.44787645339966
455,665245265,82.37725830078125,52.53017425537109,35.72612380981445,-6.80601406097412,6.46769952774048,-2.02640843391418,29.09204101562500,10.61544513702393,5.92117166519165
456,665253598,82.79500579833984,52.45059585571289,35.90810012817383,-7.36789751052856,6.90586090087891,-1.57902741432190,31.57195854187012,11.86595916748047,9.04808330535889
457,665261931,83.16942596435547,52.36630630493164,36.03710174560547,-7.44160699844360,6.32121658325195,-1.31854367256165,31.43030738830566,8.05197048187256,9.05714988708496
458,665270264,83.55864715576172,52.27669525146484,36.18060302734375,-7.21324443817139,6.31250429153442,-1.91899037361145,31.40116310119629,8.57401466369629,9.57619857788086
459,665278597,83.98499298095703,52.17485809326172,36.37706375122070,-7.48896169662476,7.05854797363281,-2.16073513031006,30.84818077087402,12.38951683044434,11.39376258850098
460,665286930,84.39285278320312,52.08679962158203,36.56818389892578,-7.47630548477173,6.67610120773315,-2.50390219688416,29.60106658935547,12.84647274017334,9.80401134490967
461,665295263,84.78178405761719,51.99473190307617,36.73626708984375,-7.49105691909790,7.12994909286499,-2.57280230522156,29.53431510925293,11.22404098510742,10.03218269348145
462,665303596,85.17495727539062,51.93060684204102,36.93087005615234,-7.14266157150269,6.74424648284912,-3.17428755760193,27.09785842895508,12.99529075622559,6.60432863235474
463,665311929,85.61177062988281,51.85930633544922,37.18420410156250,-7.12676715850830,7.95112323760986,-3.23105001449585,26.78429031372070,17.32356071472168,7.70210456848145
464,665320262,85.97003173828125,51.79867172241211,37.40400314331055,-7.73289108276367,8.02863216400146,-2.61869525909424,21.01841545104980,15.63017559051514,6.31504058837891
465,665328595,86.25353240966797,51.76372909545898,37.50425338745117,-7.24121284484863,6.83836746215820,-3.36367201805115,23.33065986633301,7.04991197586060,2.55148625373840
466,665336928,86.58519744873047,51.72711944580078,37.64822006225586,-7.17705297470093,7.48641395568848,-3.27193045616150,24.48615074157715,9.70119380950928,2.70017766952515
467,665345261,86.90403747558594,51.69225692749023,37.80015563964844,-7.82510185241699,7.68219661712646,-2.58816361427307,22.18875312805176,10.30399703979492,2.45246171951294
468,665353594,87.09253692626953,51.67893600463867,37.82441329956055,-8.19120979309082,6.29890680313110,-2.82764339447021,19.09416198730469,1.62189388275146,-0.44997820258141
469,665361927,87.31926727294922,51.68606185913086,37.83792877197266,-7.52267456054688,5.81903362274170,-3.54726791381836,24.69795036315918,0.95264512300491,-2.94301319122314
470,665370260,87.68477630615234,51.66311264038086,37.97895431518555,-7.59200191497803,7.35478830337524,-3.21478867530823,28.80811691284180,9.60152816772461,0.84995770454407
471,665378593,88.00975799560547,51.60581588745117,38.11228179931641,-8.67893886566162,7.79755878448486,-2.74477314949036,24.65332984924316,8.87894916534424,4.89057970046997
472,665386926,88.23069000244141,51.55747985839844,38.10235595703125,-8.82446002960205,6.33507871627808,-3.28759312629700,26.20063781738281,-1.03039741516113,3.63284373283386
473,665395259,88.49986267089844,51.51422500610352,38.09165191650391,-7.91466331481934,6.16444778442383,-3.47287845611572,32.06856155395508,-1.04110431671143,3.02962851524353
474,665403592,88.80474090576172,51.45954895019531,38.15267562866211,-8.45014953613281,7.37072849273682,-2.36333751678467,29.03488540649414,3.58791685104370,4.32947492599487
475,665411925,88.98393249511719,51.44559860229492,38.12804412841797,-8.80833339691162,5.48678588867188,-2.71913027763367,21.98414611816406,-2.71023058891296,-0.69011193513870
476,665420258,89.16691589355469,51.43512344360352,38.03940963745117,-8.30835723876953,5.83795690536499,-2.93754220008850,29.03063392639160,-6.74970293045044,-0.98823648691177
477,665428591,89.36456298828125,51.43605041503906,37.96408081054688,-7.99576044082642,5.84741258621216,-3.72751855850220,29.54443168640137,-5.73176574707031,-2.32209873199463
478,665436924,89.62596130371094,51.42271423339844,37.93763732910156,-7.68607187271118,6.19046163558960,-3.93350481987000,32.00163269042969,-2.85087966918945,-0.70355957746506
479,665445257,89.87414550781250,51.39984512329102,37.92739868164062,-7.99379253387451,6.36473655700684,-3.97287869453430,28.87556838989258,-1.67170166969299,0.47411987185478
480,665453590,90.14331817626953,51.39373779296875,37.89953994750977,-7.35053873062134,5.62831163406372,-5.04889822006226,33.66353988647461,-2.19361805915833,-1.40620994567871
481,665461923,90.48246765136719,51.36581802368164,37.92188644409180,-7.44128704071045,7.18508243560791,-3.63545060157776,37.36030197143555,1.59138858318329,1.20146262645721
482,665470256,90.74349212646484,51.36119079589844,37.90826797485352,-8.45438575744629,5.78266334533691,-3.96974778175354,30.69901657104492,-1.96695721149445,-1.67720866203308
483,665478589,91.06980133056641,51.36206054687500,37.87281036376953,-7.77971172332764,6.55445146560669,-3.56746983528137,40.54800415039062,-3.63513851165771,-2.30278682708740
484,665486922,91.36296081542969,51.35904693603516,37.85787582397461,-8.82076454162598,7.20171689987183,-2.71886754035950,35.32785797119141,-1.22171068191528,-1.75464105606079
485,665495255,91.52502441406250,51.37212371826172,37.68941116333008,-9.37719345092773,5.66789484024048,-3.19318819046021,33.99414825439453,-12.75973224639893,-3.38906168937683
486,665503588,91.71305847167969,51.42182540893555,37.52842330932617,-7.78827524185181,5.57198381423950,-3.50905752182007,35.71343231201172,-13.22084236145020,-7.84515047073364
487,665511921,91.92073822021484,51.50185012817383,37.45679473876953,-8.05522823333740,5.43634986877441,-3.18175649642944,29.69171333312988,-6.68343782424927,-11.61520767211914
488,665520254,92.06406402587891,51.59103012084961,37.29386520385742,-8.36039161682129,4.46973228454590,-3.30607986450195,31.25728797912598,-12.63796138763428,-12.41304206848145
489,665528587,92.18594360351562,51.67385101318359,37.07069015502930,-8.06285572052002,4.08833837509155,-3.45262980461121,34.37322616577148,-17.08918952941895,-11.45440864562988
490,665536920,92.36520385742188,51.76237869262695,36.84994125366211,-7.38446426391602,4.09764194488525,-3.66821265220642,40.33449935913086,-17.87401390075684,-12.09850692749023
491,665545253,92.59578704833984,51.84406661987305,36.65161514282227,-7.06941795349121,4.14488649368286,-4.04014968872070,44.40441894531250,-16.21562385559082,-11.24079227447510
492,665553586,92.86547088623047,51.90945816040039,36.46752929687500,-6.76113510131836,4.54602718353271,-4.20810365676880,48.48445129394531,-14.11292552947998,-9.32796955108643
493,665561919,93.13644409179688,51.94615554809570,36.27417755126953,-7.27596235275269,4.57549667358398,-4.00767850875854,49.53277206420898,-14.63087368011475,-5.78840827941895
494,665570252,93.48769378662109,51.98760986328125,36.08084869384766,-6.36891365051270,5.04403114318848,-4.18737840652466,58.40723800659180,-15.68248367309570,-6.17531776428223
495,665578585,93.82121276855469,51.98113632202148,35.94030380249023,-7.82538938522339,5.86455774307251,-3.36147928237915,51.28435134887695,-11.48453998565674,-0.58366012573242
496,665586918,94.08024597167969,51.99792480468750,35.67124176025391,-7.78982353210449,4.79423570632935,-3.62746453285217,55.26529312133789,-20.09718322753906,-2.77755236625671
497,665595251,94.32289886474609,52.00564956665039,35.41186141967773,-7.21468925476074,6.48013544082642,-2.98926639556885,52.39513778686523,-19.29286003112793,-1.65807795524597
498,665603584,94.48699951171875,52.02215194702148,35.15114974975586,-7.98509502410889,5.22544813156128,-2.98947691917419,42.29656600952148,-20.54261970520020,-2.47466015815735
499,665611917,94.61900329589844,52.06224060058594,34.83211135864258,-7.46355819702148,4.71418285369873,-3.59784460067749,43.97251892089844,-25.05583763122559,-4.90279340744019
500,665620250,94.73257446289062,52.10876464843750,34.54360198974609,-7.23954296112061,4.44581699371338,-3.61544013023376,39.68072128295898,-21.78547286987305,-5.96903705596924
501,665628583,94.88727569580078,52.17912673950195,34.27893829345703,-7.35444164276123,3.78003048896790,-3.93453407287598,41.56222915649414,-21.35072326660156,-8.71857738494873
502,665636916,95.01257324218750,52.23667144775391,33.97183609008789,-7.17502260208130,4.50375366210938,-3.55263543128967,42.89561462402344,-23.22413063049316,-7.07014656066895
503,665645249,95.16722869873047,52.29327392578125,33.69354248046875,-7.34598541259766,4.16219139099121,-3.51587605476379,42.87675094604492,-22.21692276000977,-6.84655714035034
504,665653582,95.29262542724609,52.34295654296875,33.36734390258789,-7.44566679000854,4.68568420410156,-3.18550276756287,44.76249694824219,-24.50354385375977,-5.89524555206299
505,665661915,95.40742492675781,52.38166809082031,33.01866912841797,-7.60373926162720,4.79457426071167,-3.30973267555237,44.80608749389648,-27.14978599548340,-4.09368991851807
506,665670248,95.46926116943359,52.40634918212891,32.60444641113281,-7.49088621139526,4.96933794021606,-3.39262771606445,45.53436279296875,-30.61117744445801,-2.21360063552856
507,665678581,95.51142120361328,52.42460250854492,32.16584396362305,-7.33447837829590,5.42152166366577,-3.03397607803345,44.64637374877930,-33.46200180053711,-0.92894119024277
508,665686914,95.49829864501953,52.43931961059570,31.69413375854492,-7.37013626098633,5.58208847045898,-3.06215596199036,42.02304840087891,-34.65874862670898,-0.58540207147598
509,665695247,95.45393371582031,52.45291137695312,31.18286323547363,-7.53084421157837,6.23818159103394,-2.13501739501953,41.18859863281250,-38.68850326538086,0.13777936995029
510,665703580,95.29614257812500,52.46603012084961,30.61688041687012,-7.56871700286865,5.91996383666992,-2.41715788841248,33.64732742309570,-41.48966979980469,0.17066808044910
511,665711913,95.13253021240234,52.49482727050781,30.06037712097168,-7.33969116210938,5.38538932800293,-2.56080365180969,31.21427536010742,-42.12641143798828,-1.55152189731598
512,665720246,94.90172576904297,52.53013992309570,29.47600555419922,-7.51240634918213,5.22590684890747,-2.64245676994324,26.67131614685059,-43.02664566040039,-2.62719392776489
513,665728579,94.63225555419922,52.59419250488281,28.84630775451660,-7.81660795211792,4.24749279022217,-3.35039758682251,25.52675437927246,-47.71953582763672,-5.63357210159302
514,665736912,94.36462402343750,52.68663024902344,28.19780540466309,-7.20380640029907,3.92805886268616,-3.96576547622681,28.46333122253418,-48.09135437011719,-9.49075317382812
515,665745245,94.16455078125000,52.79946899414062,27.59913253784180,-7.49874114990234,4.37957525253296,-3.74284005165100,31.02428054809570,-45.73139190673828,-12.01220130920410
516,665753578,93.91372680664062,52.92546463012695,26.94631195068359,-7.86081218719482,3.95308184623718,-4.23337364196777,31.07615852355957,-48.39080810546875,-13.88758087158203
517,665761911,93.71452331542969,53.06948852539062,26.33472633361816,-7.14775085449219,4.46346616744995,-4.39105367660522,32.53148269653320,-46.62231826782227,-15.99781608581543
518,665770244,93.50434112548828,53.20280838012695,25.74461174011230,-7.13251399993896,5.46447944641113,-4.46879577636719,30.15420341491699,-43.55498123168945,-15.42855358123779
519,665778577,93.22425842285156,53.29848098754883,25.05895042419434,-7.79117059707642,5.27286052703857,-5.21016740798950,30.09746170043945,-51.27812957763672,-10.24671268463135
520,665786910,92.87391662597656,53.37179946899414,24.25460624694824,-7.60024213790894,4.89364957809448,-5.23128128051758,34.10377883911133,-58.17583465576172,-7.85754442214966
521,665795243,92.54682922363281,53.44071578979492,23.49017524719238,-7.58829021453857,4.84876394271851,-4.50702142715454,32.12042236328125,-56.55255889892578,-7.32156181335449
522,665803576,92.20750427246094,53.52285766601562,22.70799255371094,-7.76611423492432,4.04162454605103,-4.13660573959351,33.43328857421875,-56.37380218505859,-9.66652965545654
523,665811909,91.86186218261719,53.61642456054688,21.87267684936523,-8.10381126403809,3.74682092666626,-4.01619005203247,36.86233139038086,-61.49295043945312,-10.70927047729492
524,665820242,91.54193115234375,53.70364379882812,20.92174720764160,-7.85687446594238,3.16920280456543,-4.71236896514893,52.24298477172852,-68.06163024902344,-10.59067249298096
525,665828575,91.26873779296875,53.71521759033203,19.88183784484863,-8.25875949859619,4.09142589569092,-4.99642848968506,65.47371673583984,-75.55084228515625,-1.08773100376129
526,665836908,90.86935424804688,53.66094589233398,18.62986373901367,-9.20635128021240,3.19678854942322,-5.58247327804565,71.85072326660156,-88.99377441406250,6.03678083419800
527,665845241,90.48148345947266,53.59573745727539,17.34993743896484,-8.34268379211426,2.28861451148987,-6.91392469406128,74.72976684570312,-92.74008178710938,7.49855804443359
528,665853574,90.20775604248047,53.47594451904297,16.12344169616699,-7.75706291198730,2.68105673789978,-7.46788311004639,84.23191070556641,-87.55204010009766,12.76479053497314
529,665861907,90.00434875488281,53.32669067382812,14.88860225677490,-8.11988925933838,2.81761503219604,-7.68758916854858,92.06207275390625,-90.19278717041016,16.81873893737793
530,665870240,89.78086090087891,53.14233016967773,13.61449432373047,-8.03001117706299,3.11752486228943,-7.87669897079468,94.36911773681641,-91.72714233398438,19.81315040588379
531,665878573,89.63334655761719,52.95223236083984,12.36920642852783,-8.47041511535645,2.84614443778992,-7.48739099502563,99.12187957763672,-91.97370910644531,21.23273086547852
532,665886906,89.47189331054688,52.71257781982422,11.03347873687744,-9.67077255249023,3.47785758972168,-6.38116693496704,107.06253051757812,-97.23513031005859,25.86874580383301
533,665895239,89.32482910156250,52.44811630249023,9.60639953613281,-12.11950969696045,4.16465759277344,-4.58514642715454,115.66992187500000,-106.51527404785156,29.69079589843750
534,665903572,89.06569671630859,52.19611358642578,8.00536441802979,-13.26038551330566,4.59048795700073,-4.37326002120972,119.66857910156250,-118.02519226074219,26.44947433471680
535,665911905,88.73758697509766,51.87665176391602,6.19240903854370,-14.29479408264160,6.95241022109985,-4.13673591613770,129.43673706054688,-136.69490051269531,35.04439926147461
536,665920238,88.23963165283203,51.54877090454102,4.10021972656250,-14.02482891082764,6.15726900100708,-4.80002546310425,136.00932312011719,-156.73124694824219,33.09103775024414
537,665928571,87.78029632568359,51.19319534301758,1.91322350502014,-12.69591426849365,6.86265134811401,-4.42226648330688,147.16827392578125,-167.37864685058594,36.45870971679688
538,665936904,87.32556152343750,50.88887405395508,-0.12633128464222,-10.98166656494141,5.79047393798828,-4.01084041595459,134.44491577148438,-155.49880981445312,27.77858734130859
539,665945237,87.00939178466797,50.64849472045898,-1.94891238212585,-10.05996131896973,4.68965625762939,-4.61586761474609,128.75236511230469,-141.76124572753906,21.66614913940430
540,665953570,86.80461120605469,50.48577499389648,-3.58405208587646,-9.03621196746826,3.77376174926758,-4.18419742584229,125.67398071289062,-125.70082092285156,10.63922214508057
541,665961903,86.89099884033203,50.44280242919922,-4.97933626174927,-9.21400928497314,3.21769285202026,-4.49309587478638,136.75576782226562,-108.89124298095703,-0.84184736013412
542,665970236,87.01983642578125,50.47904586791992,-6.28635454177856,-10.59155654907227,3.42640256881714,-3.15315818786621,135.10516357421875,-99.67629241943359,-11.77942371368408
543,665978569,87.32633209228516,50.61413574218750,-7.42458486557007,-10.63841247558594,3.19009733200073,-3.92560052871704,139.50630187988281,-88.07415008544922,-20.40124893188477
544,665986902,87.67303466796875,50.76372909545898,-8.54085159301758,-11.43768596649170,4.78313922882080,-1.18216931819916,143.92929077148438,-84.20617675781250,-23.76830863952637
545,665995235,88.09033203125000,51.01627731323242,-9.56193065643311,-10.55327129364014,3.86372232437134,0.11527134478092,142.46231079101562,-78.27613067626953,-32.87047958374023
546,666003568,88.51265716552734,51.30717086791992,-10.52793025970459,-9.90065002441406,3.85809159278870,1.70569109916687,139.64886474609375,-71.84342193603516,-39.18067550659180
547,666011901,88.97860717773438,51.68595123291016,-11.44367027282715,-8.74979686737061,4.14066410064697,2.21644282341003,139.35047912597656,-69.41693878173828,-46.49702072143555
548,666020234,89.49133300781250,52.10456848144531,-12.31987857818604,-7.74949502944946,5.28074598312378,2.76526618003845,142.94007873535156,-64.42713165283203,-53.23074722290039
549,666028567,90.03276062011719,52.55792999267578,-13.17118644714355,-7.71755695343018,7.72801017761230,2.56636476516724,143.44551086425781,-64.02487945556641,-54.13839340209961
550,666036900,90.41522216796875,52.94025039672852,-14.13026905059814,-7.96369218826294,10.26539325714111,2.73242855072021,136.17855834960938,-70.06768798828125,-47.73453521728516
551,666045233,90.87839508056641,53.28194808959961,-14.95887279510498,-6.90055847167969,10.26304817199707,1.48676669597626,133.79003906250000,-60.35220718383789,-42.46231842041016
552,666053566,91.50163269042969,53.60973358154297,-15.57373619079590,-7.13584947586060,10.81575775146484,0.90126711130142,131.84460449218750,-46.33940124511719,-37.93086624145508
553,666061899,92.11679840087891,53.87330627441406,-16.21646881103516,-8.91345787048340,11.88519573211670,2.50475955009460,133.86744689941406,-48.04691314697266,-29.90011978149414
554,666070232,92.55612182617188,54.10824966430664,-16.92254257202148,-10.60111904144287,12.02657508850098,3.47919726371765,119.92387390136719,-51.15113830566406,-28.26737785339355
555,666078565,92.85487365722656,54.31098937988281,-17.77056694030762,-11.12081146240234,10.97898292541504,3.22357940673828,117.07369232177734,-60.81242752075195,-23.62398529052734
556,666086898,93.19828033447266,54.55784988403320,-18.55822563171387,-10.29802417755127,11.02003097534180,3.08693981170654,116.10304260253906,-57.68603134155273,-26.54268836975098
557,666095231,93.46826934814453,54.83392715454102,-19.39290237426758,-9.58281135559082,9.82750034332275,2.38913631439209,112.28243255615234,-60.75764083862305,-29.71494674682617
558,666103564,93.74281311035156,55.09809494018555,-20.22977256774902,-8.09798049926758,9.01543998718262,2.61888527870178,113.83467102050781,-59.76593780517578,-30.14162254333496
559,666111897,94.05162811279297,55.36516952514648,-21.04562568664551,-7.54597425460815,7.57831382751465,2.38230895996094,116.15250396728516,-58.10451507568359,-30.30789184570312
560,666120230,94.41487121582031,55.64983367919922,-21.82773208618164,-7.49835777282715,6.86992883682251,2.54341387748718,119.22495269775391,-56.37311553955078,-30.25836372375488
561,666128563,94.76644134521484,55.94437408447266,-22.63055229187012,-7.80524444580078,6.31353187561035,2.38586449623108,120.25811767578125,-57.51377868652344,-31.11433982849121
562,666136896,95.11261749267578,56.25543212890625,-23.44306564331055,-8.10963916778564,5.53084611892700,2.03036403656006,121.12400817871094,-57.63439178466797,-34.63286209106445
563,666145229,95.44403076171875,56.58570861816406,-24.29969215393066,-8.29528808593750,5.85006523132324,2.16480803489685,124.07764434814453,-60.49237060546875,-36.35937881469727
564,666153562,95.80329132080078,56.96440887451172,-25.06298637390137,-7.70557975769043,6.05140399932861,1.90330815315247,118.24645233154297,-54.92372512817383,-40.55636215209961
565,666161895,96.09563446044922,57.34424209594727,-25.86480331420898,-8.04879379272461,6.37817144393921,1.86093294620514,114.52329254150391,-57.03152084350586,-40.23630905151367
566,666170228,96.35085296630859,57.71021652221680,-26.67062377929688,-7.63595581054688,6.61298799514771,2.02226495742798,110.86133575439453,-56.61713409423828,-40.15134048461914
567,666178561,96.64505004882812,58.08071136474609,-27.37874984741211,-7.28109073638916,6.53737449645996,1.35601258277893,105.94536590576172,-50.13984298706055,-41.18815994262695
568,666186894,96.95478820800781,58.46094894409180,-28.01595687866211,-6.69150638580322,6.32334947586060,0.96368098258972,100.92214965820312,-45.57339096069336,-40.93487930297852
569,666195227,97.29042816162109,58.82020187377930,-28.57574462890625,-6.51355409622192,6.53415822982788,0.58261185884476,96.41578674316406,-40.18777465820312,-38.94665145874023
570,666203560,97.61962890625000,59.13994598388672,-29.10771560668945,-6.41468620300293,6.35039138793945,0.43945631384850,92.86350250244141,-37.84583282470703,-35.89441299438477
571,666211893,97.98630523681641,59.43795394897461,-29.54514884948730,-6.31469869613647,6.17706251144409,0.31473022699356,87.78886413574219,-31.65625762939453,-33.91025543212891
572,666220226,98.35995483398438,59.72675323486328,-29.91398239135742,-6.37150764465332,6.02818202972412,0.13188098371029,81.81761932373047,-27.16723442077637,-31.75321578979492
573,666228559,98.74500274658203,59.98384857177734,-30.24485397338867,-6.33894395828247,5.58189296722412,0.27331551909447,79.37860107421875,-24.31717872619629,-28.30344390869141
574,666236892,99.22509002685547,60.21382141113281,-30.40259361267090,-5.78412389755249,5.24172401428223,-0.24910986423492,72.67065429687500,-13.88287448883057,-27.89867782592773
575,666245225,99.66242218017578,60.41034698486328,-30.57992553710938,-6.00644397735596,4.87603139877319,-0.26538029313087,69.61907196044922,-14.51052379608154,-23.65257072448730
576,666253558,100.10815429687500,60.58931732177734,-30.75240516662598,-5.82364082336426,4.45764875411987,-0.23151980340481,70.35398864746094,-13.68210315704346,-20.27697944641113
577,666261891,100.58901977539062,60.74105834960938,-30.90544509887695,-6.14040088653564,4.64460515975952,-0.34111982584000,72.58940124511719,-12.05360794067383,-17.23716163635254
578,666270224,101.03668212890625,60.85872268676758,-31.09756088256836,-6.43664264678955,4.72280263900757,-0.09165275096893,72.48980712890625,-13.94871139526367,-13.87125396728516
579,666278557,101.52803039550781,60.96584701538086,-31.23330497741699,-6.49030923843384,5.02267456054688,-0.01276051159948,71.84859466552734,-10.53088188171387,-13.17218303680420
580,666286890,102.00500488281250,61.07197952270508,-31.38125610351562,-6.84891796112061,5.40367794036865,-0.20475600659847,71.64992523193359,-10.90848827362061,-11.73283576965332
581,666295223,102.42616271972656,61.16931152343750,-31.56872177124023,-6.88953304290771,5.31765604019165,-0.23705834150314,69.14244079589844,-12.94677352905273,-10.22635078430176
582,666303556,102.83487701416016,61.23760604858398,-31.75478172302246,-6.81823348999023,5.10072660446167,-0.56020247936249,67.25936126708984,-12.54252433776855,-7.75161743164062
583,666311889,103.27313232421875,61.28842926025391,-31.89742851257324,-6.60318326950073,4.71602106094360,-0.58250790834427,66.24893188476562,-9.64622974395752,-6.19467306137085
584,666320222,103.73263549804688,61.33032608032227,-32.03219223022461,-6.81966924667358,4.77625942230225,-0.85716062784195,68.23881530761719,-8.54174137115479,-4.27085781097412
585,666328555,104.16403198242188,61.36084365844727,-32.22404861450195,-6.92271614074707,4.93294477462769,-0.51268935203552,70.89521026611328,-11.40676307678223,-2.15601134300232
586,666336888,104.60921478271484,61.36811065673828,-32.43040466308594,-7.09463071823120,5.11685276031494,-0.71723866462708,73.80263519287109,-11.96897792816162,-0.00117826065980
587,666345221,104.98324584960938,61.37111663818359,-32.71659469604492,-7.07968997955322,5.14268541336060,-0.25548627972603,73.67512512207031,-16.25733375549316,1.74445343017578
588,666353554,105.33164978027344,61.36883926391602,-33.05677032470703,-7.12735795974731,5.03580999374390,-0.59264117479324,76.57169342041016,-18.58765983581543,4.03056240081787
589,666361887,105.64306640625000,61.37060928344727,-33.44934844970703,-7.09437847137451,4.96600484848022,-0.24777096509933,77.68848419189453,-21.56428718566895,4.40794038772583
590,666370220,105.96214294433594,61.36628723144531,-33.86404418945312,-7.25923538208008,4.83145904541016,-0.56711673736572,80.61122894287109,-23.06161499023438,4.89110755920410
591,666378553,106.25554656982422,61.37483596801758,-34.29286956787109,-7.47485923767090,4.74283170700073,-0.52137750387192,79.02106475830078,-24.23003387451172,3.74762845039368
592,666386886,106.56652069091797,61.40485763549805,-34.70411300659180,-7.52055168151855,4.32886838912964,-0.83770465850830,79.62773895263672,-23.39946174621582,1.72767794132233
593,666395219,106.89342498779297,61.44100189208984,-35.13162612915039,-7.63320255279541,3.92633748054504,-0.93723142147064,83.28037261962891,-24.44559288024902,1.37386691570282
594,666403552,107.24735260009766,61.48583984375000,-35.55183410644531,-7.69792222976685,3.57685661315918,-1.09071660041809,85.41677093505859,-24.86593437194824,-0.16772316396236
595,666411885,107.62490844726562,61.52687835693359,-36.00030899047852,-7.93353605270386,3.64249634742737,-1.21132004261017,91.25200653076172,-26.22713470458984,0.89136964082718
596,666420218,108.03302001953125,61.58641815185547,-36.40870666503906,-7.99703645706177,3.63282251358032,-1.43725574016571,91.07003021240234,-24.08866119384766,-1.20818173885345
597,666428551,108.51605987548828,61.64956665039062,-36.77201461791992,-8.06313991546631,3.81937479972839,-1.70220136642456,95.32138061523438,-21.73581123352051,-2.24848771095276
598,666436884,109.07344055175781,61.72032928466797,-37.05239868164062,-7.83537960052490,4.02665472030640,-1.79930090904236,95.15543365478516,-18.10236930847168,-4.99059104919434
599,666445217,109.63865661621094,61.78540802001953,-37.37595367431641,-7.86481666564941,4.27844905853271,-1.71340692043304,101.00770568847656,-19.61697196960449,-2.84894418716431
600,666453550,110.23992156982422,61.84530258178711,-37.69364929199219,-7.71643114089966,4.27688169479370,-1.69214653968811,104.40060424804688,-19.63929557800293,-2.70839929580688
601,666461883,110.86772155761719,61.90055847167969,-38.04830551147461,-7.78450918197632,4.64526557922363,-1.95634102821350,111.84043121337891,-20.80619239807129,-0.77440392971039
602,666470216,111.48358154296875,61.94956970214844,-38.41529083251953,-7.81771659851074,4.79540014266968,-2.09167790412903,111.40492248535156,-21.71345901489258,-0.09003505855799
603,666478549,112.10605621337891,61.99930953979492,-38.79286956787109,-7.92996501922607,5.07396745681763,-2.33401870727539,113.65605926513672,-21.69458961486816,0.68630307912827
604,666486882,112.78248596191406,62.05287170410156,-39.09701156616211,-8.12396621704102,5.53906536102295,-2.29884243011475,112.04728698730469,-18.54002761840820,-1.49742543697357
605,666495215,113.41316986083984,62.10318756103516,-39.45308303833008,-8.39621734619141,5.90582180023193,-1.92516493797302,112.38842010498047,-20.50609588623047,0.53187292814255
606,666503548,113.95223236083984,62.18334197998047,-39.88918304443359,-8.42351055145264,5.54140043258667,-1.84462010860443,109.60516357421875,-26.52153205871582,-1.07542562484741
607,666511881,114.39466094970703,62.27196884155273,-40.47043991088867,-8.35706043243408,5.92749500274658,-2.10394072532654,113.76933288574219,-33.74128341674805,1.74221229553223
608,666520214,114.78218841552734,62.38347244262695,-41.11528396606445,-8.32225418090820,5.83033943176270,-1.77979183197021,113.67523956298828,-38.50836944580078,0.69393688440323
609,666528547,115.15446472167969,62.50864028930664,-41.78906250000000,-8.51461505889893,5.94787216186523,-1.72166526317596,115.34538269042969,-39.98403930664062,0.20252160727978
610,666536880,115.43434906005859,62.63555526733398,-42.58176422119141,-8.88754177093506,6.00044298171997,-1.57826519012451,116.65874481201172,-46.38659286499023,2.86226391792297
611,666545213,115.64234161376953,62.77862548828125,-43.41204833984375,-8.68745708465576,5.37307548522949,-1.90521323680878,112.51582336425781,-48.35234069824219,2.12364006042480
612,666553546,115.89054107666016,62.90481948852539,-44.19245910644531,-8.72864818572998,5.25489091873169,-2.15615391731262,111.75419616699219,-45.34315872192383,2.85806035995483
613,666561879,116.22459411621094,63.03212738037109,-44.86343383789062,-8.68602275848389,4.32346677780151,-2.40780830383301,110.83664703369141,-39.32268142700195,0.18938113749027
614,666570212,116.64929199218750,63.14584350585938,-45.47558975219727,-9.00508499145508,4.99461936950684,-2.42913532257080,115.11016082763672,-36.10628509521484,0.49716579914093
615,666578545,117.02338409423828,63.25313949584961,-46.18787765502930,-9.12023830413818,4.78530645370483,-2.36547493934631,120.19477081298828,-39.96356201171875,3.69486737251282
616,666586878,117.37998199462891,63.35836410522461,-46.92142868041992,-8.96650409698486,4.87623310089111,-3.08991003036499,120.08612060546875,-41.20558929443359,4.76268863677979
617,666595211,117.68816375732422,63.43688583374023,-47.74094772338867,-8.91974735260010,4.96862220764160,-3.47638511657715,123.91091918945312,-43.21176147460938,9.72757530212402
618,666603544,118.03773498535156,63.51572799682617,-48.52965164184570,-8.75759410858154,4.40577268600464,-3.91561269760132,125.28013610839844,-42.04908370971680,9.30542469024658
619,666611877,118.41295623779297,63.57122802734375,-49.32821655273438,-8.87307834625244,5.14143323898315,-3.39584994316101,129.77807617187500,-40.65977859497070,11.99161529541016
620,666620210,118.81475830078125,63.64205169677734,-50.08867645263672,-8.73636722564697,4.76580190658569,-3.22486519813538,128.60130310058594,-39.94217300415039,9.88214206695557
621,666628543,119.20429992675781,63.69564056396484,-50.86835861206055,-8.84212398529053,5.20270729064941,-3.06992125511169,129.53727722167969,-39.37812423706055,12.09432983398438
622,666636876,119.57257080078125,63.75144958496094,-51.69997406005859,-8.64677429199219,5.38257122039795,-2.89352178573608,132.32470703125000,-42.04031372070312,13.76413345336914
623,666645209,119.87635040283203,63.79911804199219,-52.60899353027344,-8.59558582305908,5.57430076599121,-2.90885448455811,133.24597167968750,-44.72034835815430,16.44156646728516
624,666653542,120.11138916015625,63.84115219116211,-53.60540771484375,-8.38772773742676,5.85494995117188,-2.74442601203918,134.15921020507812,-48.47008132934570,19.92330551147461
625,666661875,120.26336669921875,63.89095687866211,-54.70018005371094,-8.36728191375732,5.37824392318726,-2.87051033973694,135.12257385253906,-53.09991073608398,21.32485580444336
626,666670208,120.42410278320312,63.94165802001953,-55.79961776733398,-8.31688213348389,5.43631649017334,-2.96516203880310,136.43063354492188,-53.39600753784180,21.97214889526367
627,666678541,120.58000946044922,63.98645782470703,-56.91782760620117,-8.45926189422607,5.18889045715332,-2.95852446556091,138.22286987304688,-53.61690902709961,22.56029891967773
628,666686874,120.75158691406250,64.02976989746094,-58.00690460205078,-8.51039981842041,4.89228105545044,-2.89195942878723,136.70896911621094,-52.17169570922852,22.66190147399902
629,666695207,120.98126983642578,64.06861114501953,-58.99416732788086,-8.20700168609619,4.80415248870850,-3.28436946868896,133.02549743652344,-47.09763336181641,19.81203079223633
630,666703540,121.21383666992188,64.09400177001953,-59.97007369995117,-8.84552001953125,4.55437755584717,-3.70258426666260,131.88932800292969,-45.66063308715820,21.75097656250000
631,666711873,121.43704986572266,64.13158416748047,-60.95855712890625,-8.56319999694824,4.48547172546387,-4.20307159423828,132.40895080566406,-46.88468933105469,20.23054504394531
632,666720206,121.69983673095703,64.16628265380859,-61.91104888916016,-8.37553501129150,4.56752109527588,-4.88740396499634,133.03663635253906,-44.89998626708984,20.45959091186523
633,666728539,122.02179718017578,64.17176055908203,-62.84420776367188,-8.58364486694336,4.41828060150146,-4.94571352005005,138.29539489746094,-42.23118591308594,22.31178855895996
634,666736872,122.30444335937500,64.17366027832031,-63.84381484985352,-8.57114315032959,4.78540325164795,-4.77466249465942,140.53082275390625,-44.61301803588867,25.54205703735352
635,666745205,122.52745819091797,64.16770935058594,-64.91352844238281,-8.55565834045410,4.81027603149414,-4.79184293746948,141.09539794921875,-47.43862152099609,27.63886642456055
636,666753538,122.71691894531250,64.16162109375000,-66.04573822021484,-8.44629001617432,4.77947235107422,-4.81593465805054,143.66670227050781,-49.72734832763672,30.45124435424805
637,666761871,122.93851470947266,64.15592193603516,-67.17407226562500,-7.95820999145508,4.70021057128906,-4.58604669570923,147.18951416015625,-49.99058914184570,29.57258415222168
638,666770204,123.16757202148438,64.13716125488281,-68.31086730957031,-8.14919471740723,4.78680658340454,-4.43541097640991,148.90257263183594,-48.88183975219727,32.25169754028320
639,666778537,123.42008209228516,64.12342834472656,-69.47085571289062,-8.33189010620117,4.57625293731689,-4.26667594909668,154.23139953613281,-50.78017044067383,31.66824340820312
640,666786870,123.69448089599609,64.12425994873047,-70.62435150146484,-8.38529968261719,4.67713975906372,-4.17871952056885,156.12316894531250,-50.64416885375977,31.22996139526367
641,666795203,123.97277069091797,64.11755371093750,-71.79090881347656,-8.74812602996826,4.63208818435669,-4.32800006866455,157.97900390625000,-51.35842514038086,31.60475349426270
642,666803536,124.20443725585938,64.13581085205078,-73.01526641845703,-9.00393676757812,4.29414081573486,-4.70700311660767,158.65034484863281,-54.57342910766602,32.03817367553711
643,666811869,124.47029876708984,64.15861511230469,-74.24232482910156,-8.77075862884521,4.43559455871582,-5.26697063446045,162.99784851074219,-55.75386047363281,30.87350463867188
644,666820202,124.70874786376953,64.18067169189453,-75.48487854003906,-8.97565841674805,4.68127202987671,-5.24615478515625,161.48806762695312,-55.23060607910156,32.62553405761719
645,666828535,124.88420104980469,64.18621826171875,-76.79990386962891,-9.06291198730469,5.10424232482910,-4.87605190277100,161.61976623535156,-58.18046569824219,35.57858657836914
646,666836868,125.02500152587891,64.20957183837891,-78.15127563476562,-9.58968448638916,5.34133577346802,-5.24172401428223,161.55767822265625,-59.69998550415039,36.06317901611328
647,666845201,125.14311218261719,64.26467895507812,-79.55036926269531,-8.92822742462158,5.77091026306152,-5.43864202499390,163.84397888183594,-65.04052734375000,33.42345809936523
648,666853534,125.19880676269531,64.30216979980469,-80.99327087402344,-9.61350631713867,5.94066238403320,-5.73669910430908,161.34295654296875,-64.24682617187500,37.51850509643555
649,666861867,125.20441436767578,64.37449645996094,-82.51157379150391,-9.13280773162842,5.93029737472534,-5.74003314971924,163.55970764160156,-69.72103881835938,36.31013488769531
650,666870200,125.17722320556641,64.41741943359375,-84.04191589355469,-9.17323589324951,6.04586029052734,-5.50783300399780,160.74177551269531,-69.54673004150391,38.40295028686523
651,666878533,125.14179992675781,64.47189331054688,-85.54362487792969,-9.48625183105469,5.47798395156860,-5.44470310211182,156.68856811523438,-69.20835113525391,36.21646499633789
652,666886866,125.05666351318359,64.56179046630859,-87.07801818847656,-9.15757942199707,5.51020002365112,-5.57943248748779,154.67057800292969,-71.24832153320312,34.64208221435547
653,666895199,125.02951049804688,64.67592620849609,-88.54747772216797,-9.63915443420410,4.45158958435059,-5.88130617141724,154.71432495117188,-69.98731994628906,30.10303878784180
654,666903532,125.00042724609375,64.80326843261719,-90.03742980957031,-9.74351310729980,4.30639886856079,-5.92466688156128,156.50682067871094,-73.33660888671875,28.09333610534668
655,666911865,124.98674011230469,64.93330383300781,-91.53204345703125,-10.03178024291992,4.17909193038940,-6.08321857452393,158.96652221679688,-73.61130523681641,27.75349617004395
656,666920198,125.01055145263672,65.11701965332031,-92.99123382568359,-10.31546974182129,4.54361343383789,-6.52557516098022,160.26226806640625,-73.43215942382812,22.25909423828125
657,666928531,125.05161285400391,65.30101776123047,-94.43038177490234,-10.71572589874268,5.19707584381104,-6.48941612243652,160.38569641113281,-72.20265197753906,21.40883064270020
658,666936864,125.11386108398438,65.50476074218750,-95.86003875732422,-11.42471981048584,5.57401609420776,-6.52042865753174,161.58680725097656,-74.96504974365234,18.02021408081055
659,666945197,125.14332580566406,65.78180694580078,-97.31779479980469,-11.74573135375977,5.58507680892944,-6.74143362045288,160.97444152832031,-80.80246734619141,11.30768966674805
660,666953530,125.11238861083984,66.12491607666016,-98.84189605712891,-12.14011001586914,5.52717304229736,-6.57624578475952,161.99159240722656,-84.85805511474609,7.12105703353882
661,666961863,125.08256530761719,66.56080627441406,-100.37351989746094,-13.06487178802490,4.12118196487427,-6.99199295043945,163.43930053710938,-90.64077758789062,-2.47766423225403
662,666970196,124.94455718994141,67.04579162597656,-102.06378936767578,-13.65238189697266,4.10371589660645,-7.15705728530884,167.89611816406250,-101.70101165771484,-4.69870710372925
663,666978529,124.66647338867188,67.63658905029297,-103.93589782714844,-14.34232234954834,2.59786510467529,-7.36576080322266,171.87385559082031,-114.59315490722656,-11.57340812683105
664,666986862,124.08061981201172,68.36169433593750,-106.21039581298828,-15.24080467224121,1.25305509567261,-8.23735904693604,181.46388244628906,-133.71589660644531,-16.16810035705566
665,666995195,123.16355895996094,69.13977813720703,-108.93060302734375,-15.11609363555908,0.72113424539566,-9.19299316406250,192.86721801757812,-150.41925048828125,-14.31798744201660
666,667003528,122.02133178710938,69.90949249267578,-112.04059600830078,-15.37703895568848,0.85827398300171,-8.84880256652832,210.35568237304688,-163.02003479003906,-9.80771350860596
667,667011861,120.25025177001953,70.67472839355469,-115.96652221679688,-15.46212005615234,2.83597302436829,-8.73953819274902,228.64686584472656,-187.02107238769531,1.59503149986267
668,667020194,117.49366760253906,71.36270904541016,-120.87651062011719,-15.23481178283691,5.61149024963379,-7.43744468688965,225.10176086425781,-207.81378173828125,18.18278503417969
669,667028527,113.81745910644531,71.96144866943359,-126.70965576171875,-13.91190433502197,4.50783061981201,-8.50593662261963,222.01818847656250,-229.73362731933594,28.53675079345703
670,667036860,109.88974761962891,72.48628234863281,-132.83837890625000,-9.95514488220215,3.91152215003967,-9.74818992614746,226.64749145507812,-235.52153015136719,23.63555908203125
671,667045193,105.67160797119141,72.89658355712891,-139.29849243164062,-8.13038253784180,2.84848141670227,-7.95588111877441,231.49055480957031,-238.70489501953125,22.15303802490234
672,667053526,101.34414672851562,73.22114562988281,-145.97195434570312,-5.63868093490601,1.96952033042908,-8.67098712921143,245.54312133789062,-236.05712890625000,14.57031822204590
673,667061859,97.60284423828125,73.44315338134766,-152.11535644531250,-2.97487568855286,3.13026738166809,-9.28398227691650,256.01803588867188,-213.06988525390625,6.45092248916626
674,667070192,94.74503326416016,73.57766723632812,-157.46823120117188,-1.26211798191071,4.17357206344604,-7.72347736358643,270.54418945312500,-187.37252807617188,2.64246249198914
675,667078525,92.37829589843750,73.67133331298828,-162.35137939453125,-0.07004023343325,4.47412776947021,-6.56014680862427,275.74151611328125,-170.36772155761719,-1.85255455970764
