sep=,
DeviceTag:,Xsens DOT
FirmwareVersion:,2.1.0
AppVersion:,2022.0.0
StartTime: ,2022-08-15_19:16:03_000 EDT
© Xsens Technologies B. V. 2005-2022

PacketCounter,SampleTimeFine,Euler_X,Euler_Y,Euler_Z,Acc_X,Acc_Y,Acc_Z,Gyr_X,Gyr_Y,Gyr_Z
0,479204724,63.69431686401367,46.48470687866211,-95.76286315917969,0.00000000000000,0.00000000000000,0.00000000000000,0.00000000000000,0.00000000000000,0.00000000000000
1,479213057,63.76084136962891,46.54539489746094,-94.81104278564453,-5.01785278320312,3.08638644218445,0.60874736309052,-74.89018249511719,73.70673370361328,28.26302719116211
2,479221390,64.49071502685547,47.80011749267578,-93.54362487792969,-6.06435918807983,3.70286059379578,0.96232455968857,-69.12689208984375,73.02014923095703,32.30630493164062
3,479229723,64.67742156982422,47.79870986938477,-92.55959320068359,-7.22467994689941,3.74455571174622,1.37931180000305,-65.07582092285156,71.57409667968750,34.19571304321289
4,479238056,66.14404296875000,49.24064254760742,-90.73808288574219,-8.53312301635742,3.23559570312500,0.57339608669281,-69.44406127929688,72.73384857177734,34.53702926635742
5,479246389,66.42237091064453,49.20669937133789,-89.70709228515625,-10.06201553344727,2.89702701568604,1.17131972312927,-60.29582595825195,72.34282684326172,36.22858810424805
6,479254722,67.96832275390625,51.16836547851562,-87.80215454101562,-11.10116767883301,2.66728806495667,0.46438410878181,-62.73442077636719,79.10610961914062,33.52433013916016
7,479263055,68.36833190917969,51.18644332885742,-86.63250732421875,-12.90405178070068,2.26911640167236,0.71478432416916,-61.35424423217773,82.48997497558594,30.71117782592773
8,479271388,69.93112182617188,53.87281036376953,-84.53359222412109,-13.78235721588135,2.49570822715759,0.61991351842880,-59.14187622070312,87.94634246826172,27.42516708374023
9,479279721,71.36526489257812,56.95939254760742,-82.55639648437500,-15.90392303466797,2.37662577629089,2.30657863616943,-58.03061294555664,80.75111389160156,23.39606285095215
10,479288054,71.95796966552734,57.07270812988281,-81.30014038085938,-15.73692417144775,0.96571087837219,0.98554909229279,-55.32977676391602,82.17485046386719,12.92854118347168
11,479296387,72.63694000244141,57.22879028320312,-79.99601745605469,-16.34809494018555,1.56260526180267,0.65853691101074,-49.99551391601562,86.56103515625000,7.97407674789429
12,479304720,73.96238708496094,60.58230209350586,-78.17961883544922,-17.66054153442383,2.15450596809387,0.83153486251831,-45.56557083129883,85.03790283203125,3.21704602241516
13,479313053,75.43235015869141,63.81210708618164,-76.25991058349609,-17.96234512329102,2.28961777687073,0.09917153418064,-41.50759506225586,84.37080383300781,-4.13469552993774
14,479321386,76.51013946533203,64.06928253173828,-74.70713806152344,-17.81289100646973,3.52410817146301,-0.14948582649231,-38.05558013916016,86.88616180419922,-10.06409263610840
15,479329719,77.54398345947266,64.32614898681641,-73.24397277832031,-18.21163177490234,4.90165376663208,0.60613000392914,-34.01175308227539,81.38733673095703,-12.86815643310547
16,479338052,79.81764221191406,67.18889617919922,-70.62274169921875,-17.93017005920410,6.42695331573486,0.51660221815109,-37.91759872436523,80.43074035644531,-17.28774642944336
17,479346385,82.15093994140625,69.32337951660156,-67.99240875244141,-19.60348320007324,5.82077741622925,1.67723679542542,-34.28361129760742,67.21704864501953,-16.68782424926758
18,479354718,83.47502136230469,69.64529418945312,-66.23519897460938,-18.19850158691406,6.63692092895508,0.31483757495880,-38.60158920288086,78.13653564453125,-29.02858161926270
19,479363051,84.23897552490234,69.89822387695312,-64.94822692871094,-19.76380729675293,5.28378820419312,1.60671663284302,-53.23607254028320,56.33190917968750,-24.43828392028809
20,479371384,86.67773437500000,71.63414001464844,-62.16307449340820,-17.85554313659668,4.10285568237305,0.07991722971201,-40.87792587280273,61.78413009643555,-40.95287322998047
21,479379717,88.78162384033203,73.06604766845703,-59.67489242553711,-18.38133049011230,3.58273911476135,1.62101209163666,-44.48576736450195,52.95279312133789,-41.61308670043945
22,479388050,89.81171417236328,73.49210357666016,-58.17716979980469,-16.65796852111816,3.40296912193298,0.37953838706017,-48.51871871948242,52.31534957885742,-50.43032455444336
23,479396383,90.84417724609375,73.92348480224609,-56.78490066528320,-16.32011985778809,3.46724867820740,2.42535948753357,-36.46784973144531,46.56182479858398,-51.99113464355469
24,479404716,93.01597595214844,75.25570678710938,-54.30887603759766,-14.94506645202637,2.92669177055359,0.91959953308105,-34.66811752319336,44.87751388549805,-57.12929534912109
25,479413049,94.94259643554688,76.40933227539062,-52.09545898437500,-13.67708301544189,3.44676470756531,1.10743832588196,-30.66775512695312,43.86931228637695,-56.87591934204102
26,479421382,95.97956085205078,76.79407501220703,-50.89966583251953,-14.26848125457764,3.35004758834839,2.76912212371826,-15.14811325073242,28.68949317932129,-49.05557250976562
27,479429715,97.30584716796875,77.20047760009766,-49.46013259887695,-12.91689968109131,2.88524842262268,1.58687782287598,-9.15745258331299,32.95086669921875,-52.88381576538086
28,479438048,99.31880950927734,78.12977600097656,-47.31781768798828,-11.50981140136719,2.75143599510193,-0.51394850015640,-11.20314598083496,40.40588760375977,-52.34312438964844
29,479446381,100.79302215576172,78.82174682617188,-45.85345840454102,-12.68228054046631,3.11057257652283,1.17214632034302,4.03159809112549,25.72558593750000,-36.99002075195312
30,479454714,102.60649108886719,79.08966827392578,-44.09360504150391,-12.19385433197021,3.00544166564941,0.73254138231277,10.34703731536865,33.07985305786133,-39.61560821533203
31,479463047,105.31302642822266,79.32145690917969,-41.39406585693359,-10.81774806976318,3.98783850669861,-1.72502315044403,6.58134746551514,52.15043258666992,-41.55759811401367
32,479471380,107.89372253417969,79.80053710937500,-38.88535690307617,-10.93612766265869,5.87690401077271,-0.09299628436565,13.43012046813965,46.08349609375000,-32.65039443969727
33,479479713,110.46495819091797,80.10765838623047,-36.39225387573242,-10.64983272552490,6.85137748718262,0.72426480054855,13.93182659149170,44.07625198364258,-31.80171203613281
34,479488046,113.37087249755859,80.20046234130859,-33.51999664306641,-10.24203681945801,7.45220375061035,0.12926955521107,9.13072299957275,50.51022338867188,-32.24642944335938
35,479496379,116.40879821777344,80.27188873291016,-30.47997283935547,-9.63287162780762,7.45438623428345,-0.25459608435631,5.04021978378296,52.49300384521484,-33.74251556396484
36,479504712,119.26533508300781,80.35559844970703,-27.55779838562012,-8.39696884155273,7.53278255462646,-0.83695423603058,-1.49375128746033,56.42160797119141,-36.89202499389648
37,479513045,121.75272369384766,80.28273010253906,-24.99632072448730,-8.07446002960205,7.59171056747437,-0.22206231951714,-1.86740040779114,56.67574691772461,-36.09309768676758
38,479521378,124.67507934570312,80.29364013671875,-22.02680969238281,-8.49591732025146,7.55819940567017,0.47318971157074,-0.54777491092682,49.56264495849609,-33.95859909057617
39,479529711,127.35943603515625,80.30474853515625,-19.31356620788574,-8.49308395385742,6.50060701370239,0.34416061639786,1.19438219070435,43.57721710205078,-33.26780319213867
40,479538044,128.64314270019531,80.13059997558594,-18.02925109863281,-8.94480133056641,5.93384408950806,0.58502727746964,6.58397674560547,42.13124847412109,-30.07809066772461
41,479546377,129.25804138183594,79.96405029296875,-17.48699760437012,-9.45229339599609,5.91236829757690,1.70594000816345,15.19047451019287,31.60618209838867,-28.45808219909668
42,479554710,131.53137207031250,80.01603698730469,-15.29092216491699,-8.89841079711914,4.96084785461426,0.83248424530029,13.28445243835449,30.83697319030762,-34.39552688598633
43,479563043,133.83862304687500,80.07878875732422,-13.07987689971924,-8.96428394317627,4.37331867218018,0.52425152063370,15.54910469055176,28.59684371948242,-36.55885314941406
44,479571376,134.35726928710938,80.00380706787109,-12.65746116638184,-8.42169857025146,4.07787990570068,0.28349870443344,18.87834739685059,25.86774444580078,-39.65257644653320
45,479579709,134.78564453125000,79.93357849121094,-12.33897113800049,-8.35086441040039,4.00207901000977,-0.20901951193810,20.50362586975098,24.66635704040527,-38.70026397705078
46,479588042,136.90139770507812,80.04220581054688,-10.38580799102783,-8.04169082641602,3.95711207389832,-0.09350830316544,23.09625053405762,19.04076576232910,-38.29383468627930
47,479596375,139.17726135253906,80.14268493652344,-8.22699069976807,-7.11579513549805,3.38788318634033,-0.77438467741013,17.91427421569824,20.82900238037109,-41.16151046752930
48,479604708,139.65750122070312,80.08595275878906,-7.83179712295532,-6.77307367324829,3.11357641220093,-0.92975145578384,17.66571617126465,23.83153724670410,-41.42173004150391
49,479613041,140.21244812011719,80.01477813720703,-7.37880039215088,-6.78489685058594,3.15622997283936,-0.33054444193840,19.48398590087891,24.17244911193848,-39.92279434204102
50,479621374,142.48596191406250,80.07245635986328,-5.22546339035034,-6.86128759384155,2.90782856941223,0.15494024753571,18.32287406921387,22.50512313842773,-39.22109985351562
51,479629707,142.85700988769531,79.99745941162109,-4.96773481369019,-7.19863080978394,3.00905179977417,0.88588285446167,20.39411544799805,21.59703826904297,-35.49861526489258
52,479638040,144.96653747558594,80.01846313476562,-2.97939705848694,-7.18217897415161,3.64771413803101,1.82431054115295,18.17743110656738,22.36884689331055,-34.95568847656250
53,479646373,145.43731689453125,79.93482971191406,-2.52603149414062,-6.44543313980103,3.63942527770996,1.15790617465973,9.37561035156250,26.57511520385742,-37.73480987548828
54,479654706,147.80938720703125,79.89240264892578,-0.14982920885086,-5.71664905548096,3.48803114891052,0.60152959823608,3.92104864120483,31.73553085327148,-38.93825912475586
55,479663039,148.30705261230469,79.75010681152344,0.39508086442947,-5.34088993072510,3.81254196166992,0.70180201530457,2.00702047348022,34.26147842407227,-35.90191268920898
56,479671372,150.35255432128906,79.64096069335938,2.46411514282227,-5.34549093246460,3.75112938880920,0.61626595258713,1.19269061088562,33.94387817382812,-31.56985855102539
57,479679705,150.57957458496094,79.45442962646484,2.75606846809387,-5.25534582138062,3.56481003761292,0.29549908638000,-0.36661720275879,36.47721099853516,-29.40329933166504
58,479688038,152.40634155273438,79.28144073486328,4.63344049453735,-5.30860614776611,3.32634258270264,-0.01296424679458,-2.18838191032410,38.11014556884766,-26.68447303771973
59,479696371,152.46299743652344,79.04696655273438,4.78295946121216,-5.47806215286255,2.97376966476440,-0.50512290000916,-3.84274482727051,40.01870727539062,-24.18768310546875
60,479704704,154.09147644042969,78.81401824951172,6.49180126190186,-5.82901334762573,2.77179336547852,-0.96199876070023,-5.81270170211792,42.71165847778320,-22.67724990844727
61,479713037,154.03370666503906,78.54107666015625,6.55886602401733,-6.44147396087646,2.60384416580200,-1.00178241729736,-7.82381868362427,42.56668853759766,-19.99685478210449
62,479721370,155.46636962890625,78.28471374511719,8.09989738464355,-6.54817962646484,2.38856530189514,-1.26506161689758,-9.22061824798584,43.70903778076172,-20.57215309143066
63,479729703,155.46977233886719,77.97939300537109,8.26198673248291,-6.89948892593384,2.41360998153687,-1.27990221977234,-11.68453693389893,46.31627655029297,-19.68142318725586
64,479738036,156.58290100097656,77.72505950927734,9.51144409179688,-7.92407941818237,2.14024972915649,-1.06583428382874,-12.98366165161133,40.75601196289062,-16.54471206665039
65,479746369,156.48980712890625,77.44562530517578,9.57334709167480,-8.23593807220459,1.71087539196014,-1.61679840087891,-11.56153202056885,41.96623611450195,-17.60996055603027
66,479754702,157.65321350097656,77.15010070800781,10.87873458862305,-8.69448184967041,2.00976157188416,-1.39298105239868,-13.18460083007812,46.14183425903320,-18.03669166564941
67,479763035,157.44465637207031,76.88480377197266,10.85892391204834,-9.63604259490967,2.22427988052368,-0.93952161073685,-16.01276588439941,39.11267852783203,-14.84086227416992
68,479771368,158.28025817871094,76.68663024902344,11.85226821899414,-9.84051418304443,1.70749735832214,-1.25591945648193,-15.75254535675049,32.35729217529297,-16.42425537109375
69,479779701,158.33979797363281,76.44376373291016,12.10110282897949,-9.27578735351562,2.21946024894714,-1.57480072975159,-15.36301517486572,39.56340408325195,-21.38362693786621
70,479788034,159.27359008789062,76.19606018066406,13.24804306030273,-9.72330284118652,2.65813779830933,-1.44770419597626,-21.64927482604980,39.54138183593750,-19.76764869689941
71,479796367,158.97369384765625,76.04376220703125,13.20381927490234,-9.97446918487549,1.85779225826263,-1.97078073024750,-24.35507011413574,26.29521179199219,-16.75857162475586
72,479804700,159.63294982910156,75.90666961669922,14.05688858032227,-9.15046977996826,1.64603829383850,-2.27443718910217,-20.17861175537109,24.22731971740723,-17.57317924499512
73,479813033,159.36528015136719,75.74820709228516,14.00871467590332,-9.44822216033936,1.63291585445404,-2.11353683471680,-20.34329605102539,26.37485313415527,-14.89447593688965
74,479821366,159.91555786132812,75.60752105712891,14.74401378631592,-9.80730628967285,1.88617420196533,-1.81757092475891,-19.43196487426758,23.50016212463379,-14.78540992736816
75,479829699,159.50006103515625,75.49391937255859,14.56046581268311,-10.36842346191406,1.61935663223267,-1.94842565059662,-22.61059951782227,19.54991340637207,-11.58261299133301
76,479838032,159.93246459960938,75.40074157714844,15.16951751708984,-10.04460620880127,1.55230069160461,-2.18240666389465,-18.82424736022949,16.93077850341797,-13.56320762634277
77,479846365,159.56335449218750,75.27707672119141,15.00224399566650,-9.99925613403320,1.97917485237122,-2.13154864311218,-19.25304412841797,20.51589012145996,-10.16146850585938
78,479854698,159.79882812500000,75.18780517578125,15.38253211975098,-10.16312885284424,1.90540552139282,-2.18607234954834,-15.84235954284668,14.16668891906738,-7.41709184646606
79,479863031,159.28036499023438,75.09831237792969,15.01321697235107,-9.68183040618896,2.38640284538269,-1.95186531543732,-13.95312786102295,14.06891727447510,-4.62577867507935
80,479871364,159.34318542480469,75.00540924072266,15.18609046936035,-9.59285163879395,2.88512492179871,-1.64325129985809,-12.47171401977539,12.40797233581543,-1.31156432628632
81,479879697,158.59361267089844,74.93391418457031,14.56951904296875,-9.65437889099121,2.95712709426880,-1.53841209411621,-13.15919971466064,8.90520095825195,2.47705078125000
82,479888030,158.38693237304688,74.88562011718750,14.46018886566162,-9.54074192047119,3.04564857482910,-1.59646773338318,-12.09883403778076,4.22912788391113,5.04237985610962
83,479896363,157.42250061035156,74.83613586425781,13.62338638305664,-9.63613510131836,3.18071675300598,-1.77092611789703,-13.50501823425293,3.34311914443970,8.31266593933105
84,479904696,157.02302551269531,74.80058288574219,13.32879638671875,-9.80696487426758,2.88557744026184,-2.07401108741760,-13.78223896026611,0.45621517300606,9.90966224670410
85,479913029,156.03176879882812,74.76546478271484,12.45807361602783,-9.53830528259277,2.86411070823669,-2.12780523300171,-12.91042232513428,0.40713834762573,8.90858173370361
86,479921362,155.68650817871094,74.70528411865234,12.24138641357422,-9.31220531463623,2.90037584304810,-1.61315453052521,-16.30441284179688,3.90029287338257,8.90429115295410
87,479929695,154.81422424316406,74.64089965820312,11.54894256591797,-9.20846366882324,2.59920382499695,-2.00813770294189,-19.40742683410645,5.05895423889160,5.63148355484009
88,479938028,154.54058837890625,74.58946228027344,11.44177818298340,-8.88317203521729,2.78348636627197,-1.82914853096008,-20.39562606811523,4.23133277893066,5.40851211547852
89,479946361,153.58964538574219,74.54731750488281,10.68028068542480,-9.04312038421631,2.64753746986389,-1.99175655841827,-21.01385307312012,0.90501546859741,6.99134492874146
90,479954694,153.08648681640625,74.54994201660156,10.33061122894287,-9.06067180633545,2.52841830253601,-2.02756214141846,-19.89033317565918,-5.17684459686279,9.51683330535889
91,479963027,151.89680480957031,74.56847381591797,9.28387355804443,-8.92569923400879,2.63893389701843,-1.78326272964478,-16.82812690734863,-10.71344089508057,12.03714656829834
92,479971360,151.07322692871094,74.61852264404297,8.57209968566895,-9.06830883026123,2.86011672019958,-0.97530144453049,-16.43663787841797,-15.98851680755615,16.71789741516113
93,479979693,149.49378967285156,74.66176605224609,7.13471174240112,-9.37880229949951,2.44778561592102,-0.93330520391464,-18.50266838073730,-20.47324943542480,20.89382171630859
94,479988026,148.39732360839844,74.74984741210938,6.09678125381470,-9.33114433288574,2.70353722572327,-0.76316910982132,-11.38615512847900,-25.87496566772461,22.32030677795410
95,479996359,146.66925048828125,74.79433441162109,4.44819402694702,-9.35137367248535,3.16838240623474,-0.31079241633415,-11.93240547180176,-25.54080200195312,25.22637557983398
96,480004692,145.37263488769531,74.87450408935547,3.18731188774109,-9.79399394989014,3.20644402503967,0.14877204596996,-9.50399780273438,-29.96344947814941,27.05588531494141
97,480013025,143.52348327636719,74.94969940185547,1.34004306793213,-9.44726181030273,3.39201378822327,0.19016696512699,-3.40231823921204,-33.60408020019531,26.16337966918945
98,480021358,142.28605651855469,75.02693176269531,0.08884517103434,-8.89877414703369,3.73188567161560,0.36777061223984,-3.41007924079895,-30.69839859008789,25.02131462097168
99,480029691,141.09951782226562,75.11812591552734,-1.08798635005951,-8.64332962036133,3.67469263076782,0.09941913932562,-5.88304662704468,-31.01579093933105,21.40712356567383
100,480038024,139.37658691406250,75.17159271240234,-2.72908186912537,-7.73624277114868,3.65645623207092,0.18157567083836,-12.00782680511475,-29.47007369995117,19.16374969482422
101,480046357,138.18795776367188,75.26737213134766,-3.81932663917542,-7.10291242599487,3.37560248374939,0.12695491313934,-16.08357048034668,-30.50807189941406,17.15951347351074
102,480054690,136.40817260742188,75.32382965087891,-5.43644666671753,-6.53653144836426,3.46022701263428,0.06514503061771,-21.53316116333008,-30.33361244201660,16.08868408203125
103,480063023,134.57630920410156,75.38033294677734,-7.10060119628906,-6.07251024246216,3.20734453201294,-0.24924975633621,-22.34315299987793,-32.11635208129883,15.86172771453857
104,480071356,133.24661254882812,75.46750640869141,-8.28125953674316,-5.86770153045654,2.93820762634277,-0.45823994278908,-22.37633705139160,-32.76722717285156,16.71526336669922
105,480079689,131.69081115722656,75.53502655029297,-9.69277286529541,-6.38554620742798,2.96074819564819,-0.12281497567892,-22.64727020263672,-36.60160064697266,22.24339675903320
106,480088022,129.58277893066406,75.55461120605469,-11.66879844665527,-6.71809005737305,1.77888143062592,-0.48038509488106,-19.26769065856934,-38.38322067260742,21.45846939086914
107,480096355,127.82197570800781,75.51891326904297,-13.24821853637695,-6.24543952941895,2.11435866355896,-0.94060820341110,-23.86854362487793,-26.34900283813477,18.13116645812988
108,480104688,126.68543243408203,75.48480224609375,-14.19021701812744,-7.32052564620972,1.90546131134033,-0.81730157136917,-26.86956214904785,-19.85342788696289,19.86594200134277
109,480113021,125.45126342773438,75.45242309570312,-15.24241638183594,-8.17892074584961,2.16376733779907,-0.26621893048286,-25.81296348571777,-23.15458679199219,21.33247756958008
110,480121354,123.85505676269531,75.35245513916016,-16.64788627624512,-8.19361400604248,2.06376910209656,-0.47142300009727,-24.64353942871094,-20.43601226806641,19.76546859741211
111,480129687,122.36385345458984,75.21788024902344,-17.91421699523926,-8.77058696746826,1.88983583450317,-0.45510873198509,-28.40697479248047,-15.90967273712158,21.01140785217285
112,480138020,121.40606689453125,75.14768981933594,-18.62593269348145,-9.04871654510498,1.72252964973450,-0.24494774639606,-32.28912353515625,-13.88506221771240,18.11898612976074
113,480146353,120.39477539062500,75.09117126464844,-19.32855224609375,-9.52963256835938,1.69188320636749,-0.22714093327522,-39.79529571533203,-14.91009807586670,16.43790054321289
114,480154686,119.09024047851562,74.99821472167969,-20.37578201293945,-9.84182834625244,0.93519318103790,-0.05864690244198,-31.69673538208008,-14.92733097076416,12.92138767242432
115,480163019,118.15478515625000,74.89746093750000,-21.03840065002441,-10.11514472961426,1.81820213794708,-0.01574814878404,-32.21057128906250,-4.64512014389038,8.60963153839111
116,480171352,117.58385467529297,74.84822082519531,-21.31933593750000,-11.15588092803955,1.71702885627747,0.39484465122223,-35.86943435668945,-4.77756071090698,8.73720550537109
117,480179685,116.82268524169922,74.83835601806641,-21.76191139221191,-11.71416378021240,1.75750625133514,0.65082287788391,-40.00038146972656,-11.60613632202148,6.85298395156860
118,480188018,115.64332580566406,74.80992889404297,-22.61439132690430,-11.74945545196533,1.77721512317657,0.80853646993637,-39.59549331665039,-14.54296684265137,3.82230281829834
119,480196351,114.71394348144531,74.80842590332031,-23.22200393676758,-11.31133747100830,1.10497128963470,0.35690626502037,-38.03878784179688,-8.96761989593506,-1.88883459568024
120,480204684,114.23371887207031,74.86170959472656,-23.35927391052246,-11.65572071075439,1.48473834991455,0.03733354434371,-41.62706375122070,-6.30948734283447,-4.67178773880005
121,480213017,113.69946289062500,74.94307708740234,-23.54988288879395,-11.81564998626709,0.56447929143906,-0.32442566752434,-41.93249130249023,-9.18420410156250,-7.08432006835938
122,480221350,112.79361724853516,75.00263977050781,-24.13947868347168,-11.78241157531738,0.02822271361947,-0.70835232734680,-37.37821578979492,-11.18513965606689,-8.57722091674805
123,480229683,111.99512481689453,75.06832885742188,-24.70291328430176,-12.30007457733154,-0.42784938216209,-0.44682148098946,-27.70896339416504,-10.81989765167236,-8.71279144287109
124,480238016,111.66348266601562,75.17171478271484,-24.86281967163086,-12.73009872436523,-0.71056789159775,-0.32270163297653,-21.13203430175781,-8.89933776855469,-10.34782314300537
125,480246349,111.41954803466797,75.27764129638672,-24.98485565185547,-13.34670162200928,-1.13830924034119,-0.57400465011597,-15.01468563079834,-7.89136409759521,-11.06942749023438
126,480254682,110.84306335449219,75.35712432861328,-25.51131439208984,-13.91918468475342,-1.39783740043640,-0.77457964420319,-5.48651885986328,-10.06616592407227,-9.90172195434570
127,480263015,110.18424987792969,75.42137145996094,-26.21753883361816,-14.57490634918213,-1.15424060821533,-0.63536769151688,5.29798507690430,-14.62859916687012,-5.03112316131592
128,480271348,109.90319061279297,75.50150299072266,-26.67414665222168,-14.61711597442627,-1.58271074295044,-1.11844623088837,19.42728233337402,-15.90348911285400,-5.00795698165894
129,480279681,109.67086791992188,75.56381225585938,-27.14615631103516,-14.77748680114746,-0.42119994759560,-1.15391683578491,27.07376861572266,-15.57118701934814,-2.89540982246399
130,480288014,109.11125183105469,75.62038421630859,-27.98531150817871,-14.99956703186035,-0.08585477620363,-1.01492428779602,32.51420211791992,-17.98797607421875,-2.06817269325256
131,480296347,108.41421508789062,75.67078399658203,-29.00210380554199,-15.09423828125000,1.16847670078278,-1.33646249771118,36.53531646728516,-22.99019241333008,1.09071981906891
132,480304680,108.11241149902344,75.70886230468750,-29.70423316955566,-14.63212966918945,0.57026350498199,-1.75352609157562,45.55218887329102,-20.86455726623535,1.49898684024811
133,480313013,107.92120361328125,75.74593353271484,-30.27552795410156,-13.83129215240479,1.33678579330444,-2.91532945632935,43.61255645751953,-17.14543151855469,0.32859283685684
134,480321346,107.53609466552734,75.78289031982422,-31.05481719970703,-13.33650684356689,1.66748106479645,-3.13890004158020,46.25719070434570,-16.01876640319824,0.44921055436134
135,480329679,107.16998291015625,75.82353973388672,-31.85579681396484,-12.91285037994385,2.39181685447693,-3.40284490585327,50.80318450927734,-17.49310493469238,0.48770901560783
136,480338012,106.96303558349609,75.85300445556641,-32.55240249633789,-12.71789360046387,2.93605470657349,-3.36579418182373,56.35132217407227,-20.22065544128418,1.92982089519501
137,480346345,106.58054351806641,75.87963104248047,-33.51084518432617,-12.44383144378662,2.74204492568970,-3.72517871856689,65.75567626953125,-27.48249435424805,4.36238002777100
138,480354678,105.81159973144531,75.89571380615234,-34.99636459350586,-11.69929027557373,3.51435017585754,-3.55453252792358,82.01949310302734,-36.61686706542969,8.36721897125244
139,480363011,104.89207458496094,75.89288330078125,-36.73189544677734,-10.59330844879150,3.91518020629883,-3.31986594200134,92.85187530517578,-44.07859420776367,11.80984783172607
140,480371344,103.87029266357422,75.86350250244141,-38.69227981567383,-9.72988796234131,4.37803649902344,-2.25591921806335,105.67433929443359,-54.33755111694336,16.97964859008789
141,480379677,102.72577667236328,75.82089996337891,-40.87875366210938,-8.90780639648438,4.30486679077148,-1.85746765136719,117.19538116455078,-60.92443466186523,19.04354858398438
142,480388010,101.40584564208984,75.73497009277344,-43.37955093383789,-8.93887710571289,4.74678993225098,-1.88831484317780,133.59808349609375,-65.86632537841797,22.99439620971680
143,480396343,100.24492645263672,75.64749908447266,-45.80091857910156,-8.38117885589600,4.57205152511597,-2.88700199127197,143.25422668457031,-65.00119018554688,20.80303764343262
144,480404676,99.50167083740234,75.57427978515625,-47.82273483276367,-7.46487331390381,4.86455011367798,-4.31208467483521,145.94889831542969,-57.49705886840820,18.27784729003906
145,480413009,98.94361877441406,75.43962860107422,-49.71109771728516,-7.50863027572632,6.58299064636230,-4.32624912261963,152.57159423828125,-53.01517486572266,24.34531784057617
146,480421342,98.17169952392578,75.22813415527344,-51.85627365112305,-7.59906864166260,7.20414733886719,-4.17953062057495,157.20700073242188,-58.08939361572266,31.11249542236328
147,480429675,97.24295806884766,74.94941711425781,-54.26474380493164,-7.83823776245117,7.04029273986816,-4.42651510238647,168.39219665527344,-67.66304779052734,38.48464584350586
148,480438008,96.34159851074219,74.66615295410156,-56.76528167724609,-8.00372886657715,6.60076999664307,-4.86030435562134,181.57403564453125,-73.66503906250000,42.31798553466797
149,480446341,95.39994049072266,74.33280944824219,-59.40078353881836,-8.31847667694092,6.52997303009033,-5.21570348739624,192.09039306640625,-79.63586425781250,42.95557403564453
150,480454674,94.41141510009766,74.03324127197266,-62.16215896606445,-8.79045200347900,6.02240753173828,-6.19778919219971,200.35887145996094,-86.51926422119141,42.78999710083008
151,480463007,93.38935089111328,73.68815612792969,-65.03385162353516,-9.38679981231689,5.67169189453125,-7.17849206924438,208.28576660156250,-93.80863189697266,41.77831649780273
152,480471340,92.30496978759766,73.41099548339844,-68.02954864501953,-9.74924659729004,5.17406129837036,-8.28814220428467,214.79196166992188,-99.63111114501953,37.49567794799805
153,480479673,91.29642486572266,73.10459136962891,-71.01484680175781,-10.08431911468506,4.80214452743530,-9.09234237670898,221.39509582519531,-104.83847045898438,33.78376770019531
154,480488006,90.22836303710938,72.86671447753906,-74.12808227539062,-10.18589782714844,4.56124544143677,-10.01668548583984,229.22738647460938,-108.54601287841797,29.20212173461914
155,480496339,89.29614257812500,72.61271667480469,-77.16138458251953,-10.90308475494385,4.10504484176636,-10.38189792633057,234.45018005371094,-113.07659912109375,24.03137779235840
156,480504672,88.20829010009766,72.45109558105469,-80.42272949218750,-11.00129985809326,3.22706460952759,-11.45245647430420,242.93106079101562,-117.50654602050781,16.01875305175781
157,480513005,87.45091247558594,72.28496551513672,-83.45305633544922,-11.29304122924805,3.48648071289062,-11.99035644531250,253.63061523437500,-118.03571319580078,10.39873981475830
158,480521338,86.54096984863281,72.18603515625000,-86.69899749755859,-11.36853981018066,3.81435155868530,-12.89965534210205,261.90518188476562,-118.96081542968750,4.79080057144165
159,480529671,85.94255065917969,72.07574462890625,-89.71905517578125,-10.83096313476562,3.86019945144653,-14.23098754882812,270.35522460937500,-121.49719238281250,1.46903884410858
160,480538004,85.13919067382812,71.95280456542969,-93.05587005615234,-10.93038845062256,4.39273834228516,-14.43350791931152,284.59600830078125,-124.10358428955078,4.22939682006836
161,480546337,84.68920135498047,71.77065277099609,-96.17034912109375,-10.93902015686035,4.94769716262817,-14.02622413635254,297.59481811523438,-130.14866638183594,8.05583763122559
162,480554670,83.57411956787109,71.54965972900391,-100.03690338134766,-10.62325572967529,4.81631994247437,-13.69424724578857,306.76422119140625,-147.66006469726562,10.54809856414795
163,480563003,82.60518646240234,71.27832794189453,-103.86167144775391,-9.09827518463135,5.38596677780151,-13.66153335571289,314.44137573242188,-163.83575439453125,12.51493930816650
164,480571336,80.88942718505859,70.90296936035156,-108.41835784912109,-9.36996078491211,7.09535980224609,-12.96125602722168,311.56039428710938,-181.58085632324219,18.18462181091309
165,480579669,79.05078125000000,70.43387603759766,-113.13446807861328,-9.07859516143799,7.56145954132080,-13.95922660827637,308.35763549804688,-211.03236389160156,21.69404029846191
166,480588002,76.33638000488281,69.82833099365234,-118.78611755371094,-8.70673084259033,8.60044479370117,-11.65632820129395,312.27996826171875,-240.43086242675781,20.82892417907715
167,480596335,74.09875488281250,69.16891479492188,-124.24264526367188,-6.65703248977661,9.08096218109131,-9.93859672546387,339.06192016601562,-260.44497680664062,17.94123458862305
168,480604668,71.86203765869141,68.41049957275391,-129.79531860351562,-3.38111972808838,9.80665302276611,-8.67535781860352,352.95883178710938,-256.93395996093750,15.36351490020752
169,480613001,70.64165496826172,67.73524475097656,-134.34362792968750,-1.11085188388824,7.88197278976440,-7.58143949508667,353.66012573242188,-238.58883666992188,12.13056850433350
170,480621334,69.39038848876953,67.07427215576172,-138.75561523437500,0.17919120192528,6.45946884155273,-6.92444181442261,338.80056762695312,-218.13491821289062,3.89196085929871
171,480629667,68.40743255615234,66.50489807128906,-142.61306762695312,0.61366283893585,6.51808071136475,-5.74244499206543,307.63201904296875,-194.55831909179688,-2.90631222724915
172,480638000,68.31877899169922,66.15601348876953,-145.51608276367188,2.15173172950745,6.48259735107422,-6.38532400131226,302.01397705078125,-165.37120056152344,-9.84025096893311
173,480646333,68.69159698486328,65.95178985595703,-147.87515258789062,2.28316354751587,7.01324081420898,-6.01772546768188,296.80822753906250,-135.95932006835938,-16.72361183166504
174,480654666,68.71687316894531,65.67319488525391,-150.42132568359375,1.85006511211395,6.46205854415894,-4.60703182220459,281.89923095703125,-128.72935485839844,-15.52900028228760
175,480662999,69.09992218017578,65.48469543457031,-152.56454467773438,1.46789920330048,4.64756441116333,-1.58640277385712,273.43716430664062,-127.33032989501953,-14.18822193145752
176,480671332,69.18359375000000,65.22179412841797,-154.96397399902344,0.92604386806488,2.37889575958252,0.46991950273514,271.89556884765625,-123.40872192382812,-14.54254055023193
177,480679665,69.76120758056641,65.06838226318359,-156.90682983398438,0.54714983701706,1.25487196445465,0.27195349335670,274.47183227539062,-117.33829498291016,-13.28744411468506
178,480687998,70.21456909179688,64.74395751953125,-158.93460083007812,-0.29485291242599,1.33597230911255,-1.25435137748718,274.91860961914062,-110.28263092041016,-0.06315678358078
179,480696331,71.10667419433594,64.32760620117188,-160.67915344238281,-3.59574460983276,2.44592452049255,-0.11017769575119,290.00070190429688,-119.65181732177734,22.34900856018066
180,480704664,71.85702514648438,63.68346023559570,-162.69332885742188,-4.51767921447754,5.10900354385376,0.83697170019150,307.45370483398438,-125.01917266845703,38.27165985107422
181,480712997,72.97259521484375,63.03934097290039,-164.28887939453125,-4.98911046981812,7.32201910018921,0.00811566412449,299.13656616210938,-122.21702575683594,53.86182785034180
182,480721330,73.80094146728516,62.18431091308594,-166.03170776367188,-5.96772098541260,8.46169471740723,-0.48895615339279,285.26235961914062,-121.57093811035156,69.38698577880859
183,480729663,74.83451843261719,61.36714553833008,-167.47459411621094,-7.01801490783691,8.23562526702881,-0.56055063009262,270.64764404296875,-121.26165008544922,78.80227661132812
184,480737996,75.56912994384766,60.43920898437500,-169.05700683593750,-7.50521326065063,5.82101297378540,-0.60961002111435,254.24412536621094,-117.77843475341797,82.59723663330078
185,480746329,76.60644531250000,59.65579605102539,-170.25971984863281,-8.28249931335449,3.97576856613159,-0.57032322883606,243.49566650390625,-107.48345947265625,80.93737030029297
186,480754662,77.47270965576172,58.86196899414062,-171.50683593750000,-9.29018592834473,3.84914374351501,-0.47283890843391,232.74023437500000,-95.98757171630859,74.14864349365234
187,480762995,78.50926971435547,58.25469589233398,-172.52311706542969,-10.00816249847412,4.62819671630859,-0.31872215867043,222.44612121582031,-91.41954803466797,65.92585754394531
188,480771328,79.24204254150391,57.59155654907227,-173.75419616699219,-9.95510387420654,5.25529432296753,-0.25375556945801,213.27551269531250,-92.42670440673828,61.36481857299805
189,480779661,80.10092163085938,57.05210113525391,-174.81396484375000,-9.68908214569092,5.32795810699463,-0.44795975089073,204.24092102050781,-92.31291198730469,59.95256805419922
190,480787994,80.71875762939453,56.42309951782227,-175.99957275390625,-9.53711986541748,5.21475744247437,-0.53811973333359,193.27163696289062,-89.63201904296875,59.79188156127930
191,480796327,81.38967895507812,55.89092254638672,-177.07290649414062,-10.25937747955322,4.73843860626221,-0.30405354499817,181.74526977539062,-93.11660766601562,61.01065063476562
192,480804660,81.79647827148438,55.28622817993164,-178.33789062500000,-10.70342636108398,3.89500689506531,-0.23063974082470,174.21688842773438,-95.60484313964844,57.55722045898438
193,480812993,82.30907440185547,54.85138320922852,-179.45787048339844,-11.25155544281006,4.01595115661621,-0.13899639248848,166.17384338378906,-94.97422027587891,50.72997283935547
194,480821326,82.50028991699219,54.34160995483398,179.20343017578125,-11.78823375701904,4.12801170349121,0.63988786935806,154.05969238281250,-100.49138641357422,46.60213470458984
195,480829659,82.83750152587891,54.01742935180664,178.06976318359375,-11.44083118438721,3.93293380737305,0.39163315296173,145.59104919433594,-94.71968841552734,38.74704360961914
196,480837992,82.98516082763672,53.63750076293945,176.85812377929688,-11.44527339935303,4.43555927276611,0.58048367500305,135.25941467285156,-90.96552276611328,32.86747360229492
197,480846325,83.22779846191406,53.39912414550781,175.81358337402344,-11.39661693572998,4.19140720367432,0.44746369123459,125.12303161621094,-87.52817535400391,30.27938652038574
198,480854658,83.42140960693359,53.10489273071289,174.79287719726562,-10.04760837554932,3.15183210372925,-0.12824946641922,121.54901123046875,-77.09237670898438,24.71727561950684
199,480862991,83.68404388427734,52.84345245361328,173.90498352050781,-10.63357734680176,4.34647703170776,-0.21151889860630,116.74790954589844,-67.41195678710938,22.28808021545410
200,480871324,83.95116424560547,52.69765472412109,173.10754394531250,-10.34096527099609,3.29537034034729,0.21423365175724,103.90750885009766,-68.79813385009766,22.43194389343262
201,480879657,84.28368377685547,52.58403778076172,172.40916442871094,-10.33446407318115,3.05205035209656,-0.41146847605705,102.41390228271484,-60.99652862548828,19.86190605163574
202,480887990,84.52446746826172,52.37903213500977,171.70776367187500,-10.02580451965332,2.83895039558411,-0.82255214452744,95.82283782958984,-53.66947937011719,17.55215454101562
203,480896323,84.71604919433594,52.16724014282227,171.03500366210938,-10.43004512786865,3.10172033309937,-0.48503613471985,87.01151275634766,-51.74312973022461,18.88757324218750
204,480904656,84.93618011474609,52.07300949096680,170.44468688964844,-10.72537326812744,2.35204792022705,-0.40452885627747,78.52865600585938,-52.84878921508789,19.11301040649414
205,480912989,85.17659759521484,52.00979614257812,169.89543151855469,-10.67548084259033,1.44124972820282,-0.50230252742767,77.16371154785156,-49.30925369262695,16.12558937072754
206,480921322,85.29666137695312,51.84333038330078,169.27301025390625,-11.21533870697021,1.31767928600311,-0.56577271223068,73.37611389160156,-47.87089157104492,14.04640579223633
207,480929655,85.39148712158203,51.69110107421875,168.64808654785156,-11.05363464355469,0.88224047422409,-0.59960442781448,70.45375823974609,-47.97031021118164,12.55682182312012
208,480937988,85.55676269531250,51.67550659179688,168.08729553222656,-11.35791015625000,1.16906213760376,-0.18108449876308,69.31986999511719,-49.67766189575195,10.98335456848145
209,480946321,85.67427825927734,51.68503189086914,167.50904846191406,-11.61090660095215,1.15776836872101,-0.17680300772190,65.39043426513672,-50.55117416381836,8.44747257232666
210,480954654,85.64176177978516,51.56420898437500,166.79882812500000,-11.30609416961670,0.81697469949722,0.00156661123037,63.08006286621094,-54.23248291015625,8.31231880187988
211,480962987,85.72547912597656,51.49951934814453,166.25454711914062,-10.71832561492920,0.96284079551697,-0.82508391141891,61.35073471069336,-41.38432693481445,2.69666719436646
212,480971320,85.86373138427734,51.55931091308594,165.78158569335938,-10.77895641326904,1.36359214782715,-0.90399038791656,58.27662277221680,-42.14948272705078,3.45724606513977
213,480979653,86.03720092773438,51.61230468750000,165.30352783203125,-10.60013771057129,1.79676985740662,-0.94322091341019,63.14811706542969,-42.44956970214844,4.69242334365845
214,480987986,86.04718017578125,51.48762130737305,164.63481140136719,-11.69900035858154,2.35442185401917,0.16955442726612,64.20974731445312,-51.25882339477539,9.24091529846191
215,480996319,85.97596740722656,51.34476852416992,163.84812927246094,-11.25150108337402,1.05327212810516,0.09775947034359,65.41803741455078,-60.27206420898438,10.91738986968994
216,481004652,86.07376098632812,51.34497070312500,163.19929504394531,-11.27325057983398,1.33745241165161,0.01684458740056,70.29154968261719,-55.54882049560547,10.29830265045166
217,481012985,86.14670562744141,51.33685302734375,162.52107238769531,-11.88485527038574,1.67783820629120,0.49827653169632,70.28443908691406,-57.60959243774414,11.58732509613037
218,481021318,86.17091369628906,51.19263839721680,161.80381774902344,-11.20304775238037,1.81281280517578,0.30187255144119,70.20668792724609,-55.41473007202148,11.30897045135498
219,481029651,86.13166809082031,51.02370452880859,161.04367065429688,-11.83515739440918,2.43286395072937,1.16144418716431,66.45656585693359,-58.91708374023438,14.18804264068604
220,481037984,86.16977691650391,51.01172256469727,160.37016296386719,-10.78412818908691,1.74633967876434,0.46030250191689,65.83261108398438,-57.26621627807617,12.24787616729736
221,481046317,86.25166320800781,51.00277328491211,159.75532531738281,-10.59008502960205,1.94880354404449,0.39011013507843,65.87692260742188,-52.58001327514648,12.48628997802734
222,481054650,86.18161010742188,50.84338378906250,158.99916076660156,-10.60995006561279,1.36931991577148,0.61677730083466,62.19461822509766,-58.93571472167969,12.85271930694580
223,481062983,86.06494140625000,50.69532012939453,158.18688964843750,-10.03460025787354,0.75732904672623,0.77783691883087,61.66862487792969,-63.19274520874023,11.26040458679199
224,481071316,86.12352752685547,50.75026321411133,157.56285095214844,-9.29561710357666,1.00237917900085,0.51610565185547,64.21938323974609,-52.46546554565430,3.94155502319336
225,481079649,86.10337066650391,50.78699493408203,156.91297912597656,-9.50444412231445,1.20881962776184,0.93339872360229,57.52412033081055,-53.71678924560547,4.22501420974731
226,481087982,86.01201629638672,50.69369125366211,156.18257141113281,-8.94422435760498,0.33286014199257,0.42628991603851,57.05701828002930,-56.76710128784180,4.82240629196167
227,481096315,85.92329406738281,50.58802795410156,155.41741943359375,-9.38414955139160,0.29703769087791,0.66262549161911,60.50867462158203,-59.53948211669922,6.15164279937744
228,481104648,85.90413665771484,50.59968185424805,154.69335937500000,-8.85041618347168,-0.62874716520309,0.07164172828197,64.82498931884766,-58.76573944091797,4.06864404678345
229,481112981,85.98963928222656,50.61341857910156,154.08163452148438,-8.58115863800049,-0.19408729672432,-0.07610027492046,67.13988494873047,-49.40042114257812,2.06411027908325
230,481121314,85.97931671142578,50.50924682617188,153.36839294433594,-9.31368350982666,-0.28829231858253,0.57438325881958,65.01741790771484,-55.80495834350586,6.09522867202759
231,481129647,85.98326110839844,50.40499877929688,152.61639404296875,-9.41917228698730,-0.62972956895828,0.77556669712067,70.21708679199219,-58.81013488769531,5.97094011306763
232,481137980,86.09191894531250,50.39573669433594,151.93284606933594,-9.00317382812500,-1.26861941814423,0.37938168644905,76.58438873291016,-54.59295654296875,2.26336836814880
233,481146313,86.28124237060547,50.40398025512695,151.31532287597656,-9.16522502899170,-1.00815057754517,0.24909567832947,80.18832397460938,-48.92294692993164,-1.03296625614166
234,481154646,86.38877868652344,50.33772659301758,150.58651733398438,-10.18213272094727,-0.78039425611496,0.86573821306229,80.41023254394531,-56.88158035278320,1.78636467456818
235,481162979,86.62691497802734,50.32406997680664,149.95950317382812,-9.28593540191650,-1.63756954669952,0.00523848086596,86.64737701416016,-48.70627593994141,-3.82170295715332
236,481171312,86.85301208496094,50.32817459106445,149.30918884277344,-10.65240097045898,0.17521519958973,0.92637467384338,87.63993835449219,-51.18267440795898,-1.58402431011200
237,481179645,87.08628082275391,50.34048080444336,148.70555114746094,-10.31943225860596,-0.35223814845085,-0.03046709299088,84.15905761718750,-47.33238601684570,-3.14503121376038
238,481187978,87.32821655273438,50.29333877563477,148.09408569335938,-11.29068088531494,1.71334290504456,0.80101650953293,85.65116882324219,-47.78992080688477,0.77737295627594
239,481196311,87.49371337890625,50.22864913940430,147.44473266601562,-11.59347724914551,2.27644944190979,0.95530754327774,79.93269348144531,-50.80514526367188,2.94248414039612
240,481204644,87.72926330566406,50.22126388549805,146.90081787109375,-9.96043109893799,1.24741768836975,0.47592267394066,78.82936096191406,-42.81200027465820,-0.85924839973450
241,481212977,88.07408905029297,50.26142883300781,146.48554992675781,-9.02124977111816,0.81758302450180,-0.22400394082069,80.06706237792969,-32.62210845947266,-6.55092239379883
242,481221310,88.46102142333984,50.31937789916992,146.14228820800781,-9.41160869598389,0.60043346881866,-0.52168214321136,78.26782226562500,-26.81441497802734,-10.33959484100342
243,481229643,88.85877227783203,50.41444015502930,145.83995056152344,-9.78150749206543,0.04081676155329,-0.92659145593643,75.82398223876953,-23.57486343383789,-14.52460956573486
244,481237976,89.26135253906250,50.52930068969727,145.53012084960938,-10.52780628204346,0.36561092734337,-0.93241316080093,77.31085205078125,-24.30624771118164,-15.18373584747314
245,481246309,89.65622711181641,50.66596221923828,145.24359130859375,-10.91950416564941,0.66113615036011,-1.02038848400116,74.22844696044922,-22.51162147521973,-17.90210914611816
246,481254642,90.06034088134766,50.78268051147461,144.94174194335938,-11.21499538421631,1.00249648094177,-0.78008574247360,76.68108367919922,-23.61954689025879,-16.66055679321289
247,481262975,90.51802825927734,50.90245819091797,144.65928649902344,-11.20021724700928,1.05974781513214,-0.92930513620377,81.44974517822266,-22.29496765136719,-15.77850914001465
248,481271308,91.01538848876953,51.01653671264648,144.40457153320312,-10.88752174377441,1.58222723007202,-1.04609000682831,83.57238769531250,-20.15951156616211,-16.03108215332031
249,481279641,91.49255371093750,51.09345245361328,144.03660583496094,-11.18923759460449,1.79887986183167,-0.18135780096054,91.82188415527344,-28.75046157836914,-10.30954647064209
250,481287974,91.98009490966797,51.17878341674805,143.67158508300781,-10.56344795227051,1.58105301856995,-0.51458460092545,92.75865173339844,-28.50831031799316,-12.00202178955078
251,481296307,92.45524597167969,51.27673721313477,143.31405639648438,-10.19752311706543,1.45269560813904,-0.45423057675362,90.67471313476562,-28.07108497619629,-12.52637004852295
252,481304640,92.93600463867188,51.36647415161133,142.96032714843750,-9.91927242279053,1.30622982978821,-0.70402586460114,90.97781372070312,-27.73625373840332,-12.11131668090820
253,481312973,93.44557952880859,51.45919036865234,142.62428283691406,-9.68934917449951,1.59536707401276,-0.53074884414673,92.86762237548828,-26.48411941528320,-11.63698768615723
254,481321306,93.96736145019531,51.53037643432617,142.28701782226562,-9.45277214050293,2.14587759971619,-0.25811842083931,94.43280029296875,-26.42771720886230,-9.49825000762939
255,481329639,94.48232269287109,51.59151840209961,141.95809936523438,-9.36216163635254,2.88788938522339,-0.22442933917046,92.90337371826172,-25.74977684020996,-7.52730464935303
256,481337972,95.00241851806641,51.63683319091797,141.63304138183594,-9.16702651977539,2.74724483489990,0.14266528189182,93.13558959960938,-25.31809806823730,-6.01874160766602
257,481346305,95.61009216308594,51.70693969726562,141.48535156250000,-8.53406143188477,2.76063513755798,-1.93426072597504,87.01828765869141,-12.44638824462891,-9.45534324645996
258,481354638,96.17237854003906,51.74102783203125,141.26623535156250,-9.23613262176514,3.32569646835327,-0.17138577997684,88.26412963867188,-17.35257720947266,-5.00135612487793
259,481362971,96.79964447021484,51.78724670410156,141.09492492675781,-9.06678295135498,2.98635339736938,-0.41494277119637,91.60098266601562,-13.98592567443848,-6.23612689971924
260,481371304,97.42993164062500,51.80432128906250,140.91136169433594,-9.85633945465088,3.39854669570923,-0.01621423289180,93.08956909179688,-14.50495719909668,-2.94933581352234
261,481379637,98.05352020263672,51.82820892333984,140.72634887695312,-10.06191158294678,2.94661402702332,-0.18213205039501,92.46559143066406,-14.69506549835205,-3.20133042335510
262,481387970,98.67845916748047,51.82738113403320,140.48667907714844,-10.56597137451172,3.19446563720703,-0.01235536672175,97.74838256835938,-18.30515480041504,0.07771426439285
263,481396303,99.26765441894531,51.82629776000977,140.19883728027344,-10.88992595672607,2.97598004341125,0.41839995980263,98.04247283935547,-21.76615715026855,1.21766030788422
264,481404636,99.82849884033203,51.81540298461914,139.87388610839844,-11.40670680999756,2.98042273521423,-0.10832256078720,98.10004425048828,-24.28726577758789,2.68034887313843
265,481412969,100.38172149658203,51.80922317504883,139.56686401367188,-11.18863964080811,2.34679484367371,-0.54444307088852,95.53417205810547,-22.98014640808105,2.46936130523682
266,481421302,100.92243957519531,51.77951431274414,139.22276306152344,-11.51129245758057,2.86582469940186,-0.30624788999557,97.47755432128906,-25.17685127258301,5.61671352386475
267,481429635,101.42469024658203,51.75952911376953,138.90708923339844,-11.23209476470947,3.19102311134338,-0.56036674976349,90.21868896484375,-23.21542167663574,4.62670898437500
268,481437968,101.86253356933594,51.73194885253906,138.57281494140625,-11.12943077087402,3.63119268417358,-0.64870882034302,84.18354797363281,-24.39289665222168,5.64777183532715
269,481446301,102.28631591796875,51.71419525146484,138.23747253417969,-10.98456287384033,3.38145065307617,-0.62516814470291,82.63027191162109,-24.60794830322266,5.01394224166870
270,481454634,102.73958587646484,51.70425033569336,137.95115661621094,-11.33027172088623,3.26361465454102,-1.05469667911530,81.50370788574219,-21.26126670837402,3.17029404640198
271,481462967,103.24575042724609,51.70883941650391,137.68975830078125,-11.61062145233154,3.21759915351868,-0.98945426940918,85.54376220703125,-19.73956489562988,1.53738963603973
272,481471300,103.86189270019531,51.72798156738281,137.51210021972656,-11.89661121368408,3.33125376701355,-0.34979867935181,90.81649017333984,-14.11662197113037,-1.74308729171753
273,481479633,104.52243041992188,51.75993728637695,137.39480590820312,-12.23079204559326,3.10964298248291,-0.46918010711670,90.49806213378906,-10.05915451049805,-3.88554143905640
274,481487966,105.22993469238281,51.80012130737305,137.35440063476562,-12.07336521148682,2.55148196220398,-0.73774552345276,88.85462951660156,-4.87592077255249,-6.49918317794800
275,481496299,105.96015930175781,51.83450698852539,137.31236267089844,-12.38231468200684,2.68522810935974,-0.34393748641014,91.77598571777344,-4.77516937255859,-5.43609857559204
276,481504632,106.67535400390625,51.87223434448242,137.30154418945312,-12.36070823669434,2.38191533088684,-0.28478088974953,86.99044799804688,-2.78004693984985,-6.72579288482666
277,481512965,107.40150451660156,51.90500640869141,137.35650634765625,-12.39354133605957,2.17192840576172,-0.62888062000275,82.13653564453125,2.08132290840149,-7.24547863006592
278,481521298,108.15742492675781,51.92845535278320,137.48155212402344,-12.09511184692383,2.09838747978210,-1.41999435424805,79.04393005371094,7.21501922607422,-8.11501979827881
279,481529631,108.92790222167969,51.93440246582031,137.58903503417969,-12.48288631439209,2.93058538436890,0.13884353637695,82.47436523437500,6.66686201095581,-5.49706602096558
280,481537964,109.71542358398438,51.94551467895508,137.79374694824219,-11.89183235168457,2.49991154670715,-0.82829231023788,75.30537414550781,13.11045742034912,-8.87726116180420
281,481546297,110.55904388427734,51.95091629028320,138.03947448730469,-11.61287212371826,2.94772934913635,-1.25022625923157,78.19857025146484,16.20155525207520,-9.14877700805664
282,481554630,111.41077423095703,51.94774246215820,138.19778442382812,-11.58416461944580,3.49553465843201,0.52836912870407,87.39240264892578,10.32781982421875,-6.44699287414551
283,481562963,112.25753784179688,51.95261001586914,138.31103515625000,-11.15332221984863,3.17221164703369,-0.05935274809599,91.08079528808594,6.93848609924316,-5.95108890533447
284,481571296,113.12800598144531,51.94521713256836,138.43318176269531,-10.31782150268555,2.93071842193604,-1.05054187774658,93.05982208251953,7.93409633636475,-5.27604818344116
285,481579629,113.94152069091797,51.94458770751953,138.41726684570312,-10.26744556427002,3.54246187210083,0.61381149291992,99.31296539306641,-1.66684818267822,-1.76036667823792
286,481587962,114.72158050537109,51.95355987548828,138.45046997070312,-9.46306133270264,2.44597506523132,-0.53407132625580,90.61293792724609,1.04985821247101,-4.60279560089111
287,481596295,115.54470062255859,51.95314025878906,138.49382019042969,-9.54963207244873,2.04125928878784,-0.45658645033836,94.87715148925781,2.30742549896240,-3.63185882568359
288,481604628,116.36550903320312,51.94332504272461,138.47775268554688,-10.30249118804932,2.28728985786438,1.11211097240448,100.16018676757812,-1.29705214500427,-1.02917611598969
289,481612961,117.15065765380859,51.93595123291016,138.50338745117188,-10.04866313934326,2.09635710716248,-0.03461037203670,91.98761749267578,1.49521625041962,-2.39662623405457
290,481621294,117.97350311279297,51.92270278930664,138.57716369628906,-9.79236888885498,2.42372798919678,-0.85384625196457,91.91629028320312,4.83159780502319,-3.72519588470459
291,481629627,118.79037475585938,51.91770935058594,138.65837097167969,-9.24783229827881,3.21369266510010,-0.26719206571579,90.55687713623047,4.96532964706421,-4.67282629013062
292,481637960,119.54775238037109,51.90986251831055,138.70307922363281,-9.05171966552734,3.60308575630188,0.08549535274506,86.80615997314453,2.60147571563721,-3.40250182151794
293,481646293,120.27143859863281,51.89242172241211,138.69270324707031,-9.54517745971680,3.60408711433411,1.00421130657196,87.96675109863281,-0.36678555607796,-0.41094481945038
294,481654626,120.98284149169922,51.88327026367188,138.73887634277344,-9.85096931457520,3.44847202301025,0.28410771489143,81.20479583740234,2.90713024139404,-3.17371177673340
295,481662959,121.70219421386719,51.87456512451172,138.85942077636719,-9.10313034057617,3.21289038658142,-1.54843771457672,75.17261505126953,7.56759691238403,-6.13476896286011
296,481671292,122.37248229980469,51.86188125610352,138.88159179687500,-9.24363899230957,3.30423927307129,0.40976488590240,78.48592376708984,1.45328271389008,-2.18976020812988
297,481679625,122.99787139892578,51.85655212402344,138.87747192382812,-10.15274429321289,2.69464874267578,0.19833800196648,75.57781219482422,-0.65574043989182,-1.90538823604584
298,481687958,123.64381408691406,51.83769989013672,138.95062255859375,-10.00256347656250,2.45751285552979,-0.99064874649048,70.83132171630859,5.17462301254272,-3.49320816993713
299,481696291,124.29783630371094,51.83266067504883,139.10423278808594,-9.29582881927490,1.95300602912903,-1.87224781513214,64.21482849121094,9.18351840972900,-8.27125072479248
300,481704624,124.99626159667969,51.81237030029297,139.24075317382812,-9.28880786895752,2.15850806236267,-1.87501680850983,71.07536315917969,8.96835231781006,-6.36220741271973
301,481712957,125.62255859375000,51.79577636718750,139.25376892089844,-10.00489044189453,2.83869695663452,-0.12416173517704,74.07495117187500,1.19350087642670,-1.54320096969604
302,481721290,126.19176483154297,51.79063796997070,139.24917602539062,-10.18882465362549,2.47728157043457,-0.69138967990875,68.94760131835938,-0.52254539728165,-1.71704459190369
303,481729623,126.76608276367188,51.77508926391602,139.26980590820312,-9.63298034667969,2.32193374633789,-1.41678822040558,67.16786193847656,1.75002264976501,-1.83663773536682
304,481737956,127.34543609619141,51.75367736816406,139.27555847167969,-9.60341548919678,2.17020535469055,-1.13028573989868,69.12160491943359,1.14017117023468,-0.81698220968246
305,481746289,127.92536163330078,51.72567749023438,139.28535461425781,-9.65230274200439,2.07459402084351,-0.92807793617249,68.81072235107422,1.88038742542267,-0.39151525497437
306,481754622,128.50669860839844,51.69783401489258,139.33673095703125,-9.70621109008789,1.88907480239868,-1.59703814983368,65.12901306152344,4.47363281250000,-2.16533303260803
307,481762955,129.11895751953125,51.65946197509766,139.43255615234375,-9.48625850677490,2.07668542861938,-1.95388746261597,64.64502716064453,7.84423398971558,-3.31051087379456
308,481771288,129.71752929687500,51.61873626708984,139.52919006347656,-9.29166126251221,2.53484582901001,-1.22077882289886,62.87775802612305,7.91446828842163,-3.40231227874756
309,481779621,130.28314208984375,51.58503341674805,139.60731506347656,-9.28552246093750,2.69104862213135,-1.16352808475494,60.66731262207031,6.31139421463013,-3.25382542610168
310,481787954,130.75151062011719,51.55804061889648,139.59164428710938,-10.08455276489258,2.48754382133484,0.01038645673543,57.86744689941406,0.62074995040894,0.78616714477539
311,481796287,131.26300048828125,51.52754592895508,139.63439941406250,-10.31002426147461,1.94960200786591,-1.50115513801575,57.56568908691406,4.21237611770630,-1.76611959934235
312,481804620,131.79328918457031,51.46904754638672,139.72192382812500,-9.93321418762207,2.14205908775330,-1.50222301483154,55.55525588989258,8.79905223846436,-1.68722712993622
313,481812953,132.26547241210938,51.43233489990234,139.75190734863281,-9.82772254943848,2.20467710494995,-1.64440238475800,53.99012756347656,3.86547994613647,-0.83716505765915
314,481821286,132.68153381347656,51.41086196899414,139.74548339843750,-9.21142387390137,1.76484060287476,-1.71930575370789,50.71714401245117,0.79583603143692,-0.21647919714451
315,481829619,133.10055541992188,51.37776947021484,139.72230529785156,-9.29831790924072,1.00533103942871,-2.30253815650940,52.64662933349609,0.84621959924698,1.65826964378357
316,481837952,133.57989501953125,51.31917953491211,139.71746826171875,-9.57988834381104,0.86019665002823,-2.45518517494202,58.11620712280273,3.80695247650146,2.75287222862244
317,481846285,134.06990051269531,51.25298690795898,139.70008850097656,-9.87005329132080,1.27548253536224,-1.79386889934540,60.56885528564453,3.80977153778076,4.02644300460815
318,481854618,134.50500488281250,51.19621658325195,139.65420532226562,-9.94669055938721,1.41631972789764,-0.90844208002090,56.67162704467773,1.70509314537048,4.84161615371704
319,481862951,134.94053649902344,51.14657211303711,139.63099670410156,-9.82065010070801,1.28340590000153,-1.36220657825470,54.60876083374023,2.36931037902832,3.03420639038086
320,481871284,135.37867736816406,51.09138488769531,139.60861206054688,-9.60498523712158,1.47073781490326,-1.46487522125244,54.80780792236328,2.75306367874146,3.25576972961426
321,481879617,135.79537963867188,51.04753112792969,139.54402160644531,-9.71909141540527,1.46705842018127,-1.75357854366302,56.17546081542969,-0.40063333511353,4.55495309829712
322,481887950,136.18095397949219,51.01096725463867,139.43347167968750,-9.76706600189209,1.83228754997253,-0.87353819608688,56.74415969848633,-3.21298217773438,6.61698293685913
323,481896283,136.53829956054688,50.97996139526367,139.32087707519531,-10.07105064392090,1.34205353260040,-1.35326421260834,53.53647994995117,-3.74201822280884,6.28801536560059
324,481904616,136.97164916992188,50.92673873901367,139.27430725097656,-9.80106067657471,1.70129823684692,-1.53701508045197,56.48279190063477,1.48673117160797,4.33442687988281
325,481912949,137.36746215820312,50.88362121582031,139.20057678222656,-9.87914180755615,2.13004446029663,-0.79993444681168,54.50256347656250,-0.75078088045120,5.00000143051147
326,481921282,137.70347595214844,50.86140823364258,139.08662414550781,-9.71024322509766,1.49708151817322,-1.63605666160583,51.10232162475586,-4.42200040817261,5.74455642700195
327,481929615,138.07626342773438,50.82925415039062,138.98173522949219,-9.34401607513428,1.44958651065826,-2.36467909812927,54.65540313720703,-3.01480340957642,6.05395364761353
328,481937948,138.49043273925781,50.76733016967773,138.88783264160156,-9.34566688537598,1.38682377338409,-2.22097420692444,58.57167816162109,0.05206109210849,7.65464687347412
329,481946281,138.93598937988281,50.70082092285156,138.80491638183594,-9.39493656158447,1.39788293838501,-2.16149783134460,61.31272506713867,1.08721244335175,7.39012622833252
330,481954614,139.35397338867188,50.64881896972656,138.68638610839844,-9.48169708251953,1.90497410297394,-1.74840271472931,61.32044219970703,-1.72251188755035,8.47289752960205
331,481962947,139.70205688476562,50.62141418457031,138.50250244140625,-9.80876350402832,1.74200677871704,-1.71598732471466,58.98265838623047,-7.12513399124146,10.35370254516602
332,481971280,140.04974365234375,50.60640716552734,138.30555725097656,-9.72299194335938,1.64025902748108,-2.14832472801208,60.12865447998047,-9.04561996459961,10.02200031280518
333,481979613,140.40498352050781,50.57619857788086,138.13439941406250,-9.43841648101807,1.53019511699677,-2.32769346237183,58.64025497436523,-6.30947208404541,9.73414421081543
334,481987946,140.76805114746094,50.54397583007812,137.98101806640625,-9.41605281829834,1.51737022399902,-2.42894649505615,57.93434906005859,-4.97483777999878,9.05895042419434
335,481996279,141.11799621582031,50.52426910400391,137.81541442871094,-9.35367679595947,1.48727118968964,-2.31683015823364,57.48464202880859,-6.65856790542603,8.86983776092529
336,482004612,141.43557739257812,50.51133728027344,137.61608886718750,-8.90562248229980,1.43592917919159,-2.54207944869995,56.71081161499023,-9.05834674835205,10.23052120208740
337,482012945,141.76197814941406,50.48457336425781,137.40704345703125,-8.65617561340332,1.23263144493103,-2.48771524429321,58.66150283813477,-8.15229606628418,11.89474010467529
338,482021278,142.07418823242188,50.46071243286133,137.15542602539062,-8.63884735107422,1.36416232585907,-2.17194890975952,60.90004348754883,-10.12875080108643,14.45955657958984
339,482029611,142.35157775878906,50.43818283081055,136.88021850585938,-8.76758575439453,0.86738979816437,-2.28323245048523,58.89140701293945,-11.28177547454834,15.84685039520264
340,482037944,142.66067504882812,50.40764617919922,136.61378479003906,-8.74480152130127,1.02290391921997,-2.69937062263489,61.87340164184570,-10.24913978576660,15.78612422943115
341,482046277,142.98435974121094,50.34869766235352,136.34872436523438,-8.92192363739014,1.14108324050903,-2.49780869483948,63.48212814331055,-7.37979602813721,17.83199119567871
342,482054610,143.30921936035156,50.29993057250977,136.06912231445312,-9.16217994689941,1.56120097637177,-2.42887496948242,64.93341064453125,-8.68938350677490,18.21572875976562
343,482062943,143.62889099121094,50.25518798828125,135.77130126953125,-9.41389274597168,2.11862659454346,-2.09127569198608,65.98023223876953,-9.80645084381104,19.11991691589355
344,482071276,143.93171691894531,50.21208953857422,135.46566772460938,-9.41048336029053,2.17451500892639,-2.11324644088745,64.66845703125000,-10.44829463958740,19.37808036804199
345,482079609,144.23059082031250,50.17658996582031,135.15826416015625,-9.15589714050293,2.21923327445984,-2.26968717575073,64.32510375976562,-10.91409111022949,19.18236160278320
346,482087942,144.51226806640625,50.13173294067383,134.85182189941406,-9.02591133117676,2.34565043449402,-2.20633697509766,62.17210006713867,-10.10797882080078,19.68283462524414
347,482096275,144.79606628417969,50.09314346313477,134.55929565429688,-9.00010776519775,1.85027778148651,-2.79430961608887,61.12820434570312,-9.75556182861328,18.60074234008789
348,482104608,145.08836364746094,50.04737854003906,134.27706909179688,-8.81089687347412,2.15052056312561,-2.66276955604553,61.18438339233398,-8.74958610534668,18.34285926818848
349,482112941,145.35884094238281,50.00655746459961,133.99896240234375,-8.99302387237549,2.13277578353882,-2.46014118194580,58.17218780517578,-8.71386432647705,17.96226119995117
350,482121274,145.57679748535156,49.97250747680664,133.70649719238281,-9.15284156799316,2.08047270774841,-2.02279663085938,53.17139816284180,-10.18373584747314,18.30051422119141
351,482129607,145.78262329101562,49.95809936523438,133.41123962402344,-9.21727085113525,1.30361354351044,-2.55709838867188,51.97061920166016,-11.92125701904297,17.35467910766602
352,482137940,145.97592163085938,49.93757247924805,133.07530212402344,-9.00935363769531,1.49049150943756,-2.01212787628174,54.19118118286133,-13.27205562591553,20.25475883483887
353,482146273,146.21702575683594,49.90317535400391,132.78488159179688,-8.89289855957031,0.09083747118711,-3.26952862739563,55.72549438476562,-9.57824230194092,18.47480010986328
354,482154606,146.53057861328125,49.84536743164062,132.48246765136719,-8.76190471649170,0.91180187463760,-2.76532840728760,65.51167297363281,-7.93437623977661,20.71407699584961
355,482162939,146.78701782226562,49.75573348999023,132.14355468750000,-9.72343730926514,1.09231507778168,-2.30068922042847,61.95862579345703,-5.92820739746094,25.40361595153809
356,482171272,147.11245727539062,49.68974304199219,131.84811401367188,-9.35752868652344,-0.74853217601776,-3.80161285400391,66.23641967773438,-6.62345886230469,20.92682647705078
357,482179605,147.60617065429688,49.60326766967773,131.55845642089844,-8.32974433898926,0.33212536573410,-3.60664987564087,85.82969665527344,-3.87435913085938,22.11019325256348
358,482187938,147.91125488281250,49.51080322265625,131.13031005859375,-9.22230815887451,2.74037766456604,-0.30875584483147,75.84987640380859,-9.15642738342285,31.50758171081543
359,482196271,148.07992553710938,49.53017425537109,130.64369201660156,-9.35399436950684,0.55434000492096,-1.61773562431335,64.74871063232422,-22.52078628540039,28.47114372253418
360,482204604,148.38775634765625,49.53977203369141,130.18463134765625,-8.21573829650879,-1.02866172790527,-4.42727994918823,78.98764801025391,-20.56388092041016,27.18688011169434
361,482212937,148.83665466308594,49.43027114868164,129.79460144042969,-8.03496742248535,0.48265063762665,-3.82768034934998,89.52500152587891,-5.07433557510376,30.36358642578125
362,482221270,149.23878479003906,49.25513839721680,129.39544677734375,-9.48194122314453,2.06404066085815,-2.29518556594849,84.72985839843750,1.20592713356018,34.97442245483398
363,482229603,149.51258850097656,49.15950393676758,128.92543029785156,-10.37627506256104,2.22046041488647,-1.78228414058685,75.62590026855469,-9.34602642059326,35.11501312255859
364,482237936,149.74514770507812,49.10467910766602,128.39602661132812,-10.28919601440430,1.82641446590424,-2.44484305381775,76.08748626708984,-16.10103416442871,36.58944320678711
365,482246269,149.99096679687500,49.03747177124023,127.85328674316406,-9.74954795837402,1.73667454719543,-2.91058063507080,78.77488708496094,-14.86727142333984,38.50185394287109
366,482254602,150.25918579101562,48.96486663818359,127.33901214599609,-9.31590461730957,1.44196355342865,-3.11968708038330,78.89816284179688,-13.37125968933105,36.84662246704102
367,482262935,150.54042053222656,48.87541198730469,126.84990692138672,-8.63512516021729,1.28350937366486,-3.19976115226746,78.05184173583984,-10.12445163726807,36.37969207763672
368,482271268,150.81059265136719,48.77532958984375,126.36309051513672,-8.66678428649902,1.71132481098175,-2.62346673011780,76.52883148193359,-9.12594795227051,36.81589126586914
369,482279601,151.06077575683594,48.65533828735352,125.89331054687500,-8.89201641082764,1.38991439342499,-3.27890515327454,72.45898437500000,-5.89000225067139,37.05477905273438
370,482287934,151.33958435058594,48.54864501953125,125.40576934814453,-8.97570610046387,1.34295237064362,-3.52434492111206,77.47708129882812,-8.18336772918701,37.47235107421875
371,482296267,151.62268066406250,48.41146469116211,124.92247772216797,-9.37378501892090,1.80984556674957,-3.01189923286438,77.45344543457031,-4.28749275207520,39.17632293701172
372,482304600,151.89019775390625,48.28744888305664,124.44036865234375,-9.49519729614258,1.69211292266846,-2.95618987083435,75.46735382080078,-5.84315633773804,38.31577301025391
373,482312933,152.16038513183594,48.16762924194336,123.96817016601562,-9.43527889251709,2.02177023887634,-2.55969762802124,74.75405120849609,-5.40000057220459,37.62424850463867
374,482321266,152.39440917968750,48.04742813110352,123.50229644775391,-9.26080417633057,2.01509356498718,-2.54514527320862,69.83056640625000,-5.35965442657471,37.15789031982422
375,482329599,152.62644958496094,47.95522689819336,123.01969909667969,-9.07705020904541,1.40966165065765,-2.70582127571106,70.94995117187500,-8.43655681610107,37.01020431518555
376,482337932,152.84384155273438,47.85001754760742,122.51948547363281,-9.02731895446777,1.57385611534119,-2.50936126708984,70.76092529296875,-7.97450017929077,38.95741271972656
377,482346265,153.07981872558594,47.75966262817383,122.05091857910156,-9.37802886962891,0.79696869850159,-2.90173983573914,70.03607177734375,-7.86110401153564,36.09112930297852
378,482354598,153.35868835449219,47.66367721557617,121.59413146972656,-9.06177330017090,0.80639439821243,-3.35377073287964,74.14990234375000,-7.09756803512573,35.51766586303711
379,482362931,153.63478088378906,47.55218505859375,121.13273620605469,-9.31362628936768,1.57633888721466,-2.96727180480957,74.07656860351562,-5.02316045761108,36.90513992309570
380,482371264,153.90167236328125,47.45796966552734,120.65927886962891,-9.54830837249756,1.74034690856934,-2.97216486930847,74.05111694335938,-7.58370447158813,36.82815551757812
381,482379597,154.16860961914062,47.37624359130859,120.16435241699219,-9.54962444305420,1.50989520549774,-3.24672627449036,75.81169128417969,-9.09718418121338,37.94592285156250
382,482387930,154.42454528808594,47.30576705932617,119.61864471435547,-9.56523418426514,2.05445909500122,-3.00143408775330,79.00202178955078,-12.38828563690186,41.05598068237305
383,482396263,154.69490051269531,47.24562454223633,119.09601593017578,-9.48204326629639,0.87055176496506,-3.85199308395386,78.56792449951172,-12.06933116912842,39.04380798339844
384,482404596,154.99929809570312,47.18550491333008,118.53856658935547,-9.15266323089600,1.61888229846954,-3.69175457954407,85.75582122802734,-13.54553222656250,41.60040664672852
385,482412929,155.29470825195312,47.11616897583008,117.97779083251953,-9.54430007934570,1.51459360122681,-3.58538889884949,84.82064056396484,-11.97446918487549,42.53076934814453
386,482421262,155.59783935546875,47.06864547729492,117.37946319580078,-9.52357196807861,1.48370385169983,-3.51868104934692,89.09578704833984,-15.88984298706055,44.23686981201172
387,482429595,155.91691589355469,47.00250244140625,116.77746582031250,-9.54813575744629,1.58146762847900,-3.58684921264648,91.28488922119141,-13.74111461639404,45.55657958984375
388,482437928,156.24584960937500,46.93914413452148,116.15549468994141,-9.84038639068604,2.05575895309448,-3.26352310180664,94.06752014160156,-13.97413825988770,47.13720321655273
389,482446261,156.55496215820312,46.88010406494141,115.51512145996094,-10.21693134307861,2.15080356597900,-3.07485294342041,93.24542236328125,-14.78224754333496,48.43762207031250
390,482454594,156.88475036621094,46.83305358886719,114.89397430419922,-9.88421821594238,1.94016969203949,-3.64453411102295,94.09159851074219,-15.72222328186035,46.46015548706055
391,482462927,157.22741699218750,46.76866149902344,114.27426147460938,-9.60904979705811,2.46831321716309,-4.20214891433716,95.46101379394531,-13.49015522003174,47.29579544067383
392,482471260,157.52366638183594,46.70086669921875,113.60826110839844,-10.31963443756104,3.38763260841370,-3.88793134689331,93.78128814697266,-13.79386711120605,51.16637802124023
393,482479593,157.80293273925781,46.66402435302734,112.94036102294922,-10.86033248901367,2.47158479690552,-3.96361684799194,91.87327575683594,-17.03045463562012,50.00916671752930
394,482487926,158.15765380859375,46.63725662231445,112.33740234375000,-10.34501361846924,1.34176790714264,-4.73905134201050,95.31237792968750,-16.40925788879395,44.65695571899414
395,482496259,158.57054138183594,46.57571792602539,111.79187011718750,-9.92651939392090,1.72667992115021,-5.03600120544434,97.24532318115234,-10.47958087921143,41.93349838256836
396,482504592,158.98915100097656,46.50873565673828,111.25961303710938,-9.67625331878662,2.04385423660278,-5.01435661315918,96.64151000976562,-8.60992622375488,41.31600189208984
397,482512925,159.40342712402344,46.44884872436523,110.70381927490234,-9.47611427307129,2.02637290954590,-4.92829275131226,98.10546112060547,-9.78819561004639,42.92822265625000
398,482521258,159.83735656738281,46.38975143432617,110.12996673583984,-9.05657005310059,1.87900352478027,-5.06671380996704,102.08467102050781,-10.64659690856934,44.38105392456055
399,482529591,160.27854919433594,46.33956146240234,109.50575256347656,-9.08161067962646,1.97016763687134,-4.39163160324097,107.28517913818359,-12.73194217681885,48.05086135864258
400,482537924,160.72987365722656,46.31072616577148,108.85648345947266,-8.96326541900635,1.85170578956604,-4.28063631057739,110.54965209960938,-14.88273143768311,49.29906463623047
401,482546257,161.17060852050781,46.29394531250000,108.17805480957031,-9.08075046539307,1.95325589179993,-3.83968710899353,111.77784729003906,-16.63367462158203,51.23324584960938
402,482554590,161.58914184570312,46.28653717041016,107.47943115234375,-9.07018470764160,2.06864809989929,-3.92340278625488,110.95290374755859,-18.41611671447754,52.59336090087891
403,482562923,162.01365661621094,46.28213119506836,106.76816558837891,-8.88507652282715,2.47487282752991,-4.27484941482544,112.76140594482422,-18.68213081359863,53.60767364501953
404,482571256,162.42262268066406,46.26678848266602,106.03878021240234,-9.20675563812256,3.21075415611267,-4.05484819412231,112.36521148681641,-16.88924026489258,55.56180572509766
405,482579589,162.79605102539062,46.26697158813477,105.27661132812500,-9.59541988372803,3.50090336799622,-3.83336257934570,110.95708465576172,-19.08036231994629,57.70834350585938
406,482587922,163.15878295898438,46.28694152832031,104.49791717529297,-9.38330936431885,3.59535527229309,-4.02508640289307,111.18490600585938,-21.96234512329102,58.46782684326172
407,482596255,163.51705932617188,46.29896926879883,103.71376037597656,-9.50801181793213,3.88514947891235,-3.96424937248230,111.13997650146484,-20.78701972961426,59.28516769409180
408,482604588,163.81813049316406,46.33295822143555,102.93628692626953,-9.77468204498291,3.68970799446106,-3.11484789848328,103.68349456787109,-22.17970275878906,58.03331756591797
409,482612921,164.11836242675781,46.40401840209961,102.17001342773438,-9.07374572753906,3.27587509155273,-3.79880428314209,102.69953155517578,-25.84326934814453,55.94878768920898
410,482621254,164.42558288574219,46.43031311035156,101.44240570068359,-8.83056259155273,3.82129526138306,-3.89675402641296,100.23807525634766,-20.11527442932129,54.49952697753906
411,482629587,164.68237304687500,46.42531967163086,100.74203491210938,-8.99737453460693,4.01983499526978,-3.44117903709412,91.83297729492188,-15.61206054687500,53.40795135498047
412,482637920,164.92570495605469,46.44890594482422,100.03545379638672,-8.45095920562744,3.83868074417114,-4.01677846908569,90.78781127929688,-18.16761589050293,52.94145202636719
413,482646253,165.17036437988281,46.45953369140625,99.32754516601562,-8.40310573577881,4.42955493927002,-3.98468112945557,91.11264038085938,-16.44368553161621,53.48574066162109
414,482654586,165.37290954589844,46.43481063842773,98.64434051513672,-8.83076381683350,4.54617023468018,-3.58873534202576,83.84476470947266,-12.25211238861084,52.80440139770508
415,482662919,165.55599975585938,46.42444229125977,97.96396636962891,-8.84521484375000,4.42392969131470,-3.61679196357727,81.24873352050781,-13.68188190460205,52.19618606567383
416,482671252,165.71125793457031,46.41903686523438,97.28993225097656,-9.00608444213867,4.67657184600830,-3.19870567321777,77.46144866943359,-13.31625175476074,51.42177581787109
417,482679585,165.81221008300781,46.42475128173828,96.63364410400391,-9.43995475769043,4.51318454742432,-2.96873188018799,69.43918609619141,-14.11718750000000,49.67695999145508
418,482687918,165.89331054687500,46.46475601196289,95.98220062255859,-9.36389255523682,4.02519083023071,-3.10462284088135,66.50550079345703,-18.57990074157715,48.47633743286133
419,482696251,165.96519470214844,46.54507446289062,95.33537292480469,-9.25503826141357,3.65192508697510,-3.13980126380920,65.05854797363281,-23.09951972961426,46.89222717285156
420,482704584,166.01551818847656,46.66001892089844,94.71118927001953,-9.03652191162109,3.02243423461914,-3.12233972549438,60.76973724365234,-25.91816329956055,43.78930282592773
421,482712917,166.07382202148438,46.78025817871094,94.13653564453125,-8.65862274169922,2.52519774436951,-3.21803140640259,57.50221633911133,-25.45498085021973,39.57093811035156
422,482721250,166.15357971191406,46.86877059936523,93.62868499755859,-8.18718719482422,2.52959060668945,-3.37416529655457,54.13407516479492,-21.07591438293457,35.34910964965820
423,482729583,166.23292541503906,46.92784500122070,93.16066741943359,-8.13697528839111,2.62555789947510,-3.40060663223267,50.64885330200195,-16.80453109741211,32.99061965942383
424,482737916,166.31163024902344,46.98928451538086,92.70870971679688,-8.17656707763672,2.55308055877686,-3.41083478927612,49.40401077270508,-15.98476696014404,31.37662506103516
425,482746249,166.39666748046875,47.06255340576172,92.25366973876953,-8.14095115661621,2.58523988723755,-3.27988791465759,50.45866012573242,-17.34486389160156,31.23480796813965
426,482754582,166.48516845703125,47.12911605834961,91.80918121337891,-7.90769481658936,2.66555619239807,-3.34726715087891,49.80912780761719,-17.03488159179688,30.84787368774414
427,482762915,166.56906127929688,47.17724990844727,91.36441040039062,-7.94028997421265,3.00655031204224,-3.27065587043762,49.31950378417969,-14.83278942108154,31.36873626708984
428,482771248,166.62408447265625,47.23169708251953,90.89777374267578,-8.09801673889160,3.34946560859680,-3.14838576316833,48.00912857055664,-15.18603610992432,32.62322235107422
429,482779581,166.66104125976562,47.29273605346680,90.41088867187500,-7.89498472213745,3.77905440330505,-3.35320186614990,47.68191146850586,-16.28596878051758,34.00519943237305
430,482787914,166.68351745605469,47.35032653808594,89.91770172119141,-8.15142822265625,4.04274511337280,-2.90215277671814,46.32368087768555,-16.72986221313477,34.86791229248047
431,482796247,166.67364501953125,47.42286682128906,89.41059875488281,-8.25145339965820,3.78340291976929,-2.92987322807312,43.71588134765625,-18.72247314453125,35.50421524047852
432,482804580,166.66070556640625,47.51394653320312,88.87936401367188,-8.23700428009033,3.92170023918152,-2.95031189918518,45.77571487426758,-20.55691528320312,36.49442291259766
433,482812913,166.63607788085938,47.60468673706055,88.36446380615234,-8.32093811035156,3.91634559631348,-2.87940478324890,43.03237152099609,-20.19166183471680,35.13309478759766
434,482821246,166.59974670410156,47.69045639038086,87.86351013183594,-8.21006011962891,3.60452675819397,-3.21934247016907,40.18362808227539,-20.14173316955566,34.44172286987305
435,482829579,166.55941772460938,47.76284790039062,87.36870574951172,-8.04268264770508,3.74360656738281,-3.53155446052551,39.21053314208984,-18.47691726684570,34.25482940673828
436,482837912,166.49526977539062,47.81893539428711,86.88982391357422,-8.16976165771484,3.53183031082153,-3.50019192695618,35.27509307861328,-15.49259853363037,33.02459716796875
437,482846245,166.42956542968750,47.88201904296875,86.40565490722656,-8.43178272247314,3.25420832633972,-3.46023273468018,35.61671447753906,-16.42524337768555,33.16558074951172
438,482854578,166.35305786132812,47.96917724609375,85.92848205566406,-8.75428676605225,2.74141740798950,-2.89235043525696,33.43745040893555,-19.94682312011719,32.26075744628906
439,482862911,166.32276916503906,48.08105850219727,85.46366119384766,-7.94675254821777,2.36329936981201,-4.14038228988647,37.95223999023438,-22.61281776428223,30.50078392028809
440,482871244,166.33343505859375,48.12028503417969,85.04663085937500,-7.86854982376099,3.20297741889954,-4.33470058441162,38.95226669311523,-12.38987541198730,28.37151718139648
441,482879577,166.32389831542969,48.07986068725586,84.66496276855469,-8.66515254974365,3.42754030227661,-4.38398504257202,33.37520980834961,-2.42751622200012,27.86834716796875
442,482887910,166.30795288085938,48.06188201904297,84.25350189208984,-9.70837783813477,3.25501251220703,-4.03007030487061,34.93661880493164,-6.46066665649414,29.99631690979004
443,482896243,166.29306030273438,48.09614181518555,83.81474304199219,-9.44963169097900,3.14967775344849,-4.31622076034546,37.83918380737305,-12.21927070617676,30.19521141052246
444,482904576,166.31620788574219,48.12640762329102,83.40664672851562,-9.31095218658447,3.24083518981934,-4.13948345184326,39.35209274291992,-12.02027416229248,28.33807754516602
445,482912909,166.34034729003906,48.15146636962891,83.01863861083984,-9.32182121276855,3.15314173698425,-4.05594396591187,38.01243972778320,-10.13435554504395,26.44551658630371
446,482921242,166.37149047851562,48.19969558715820,82.63389587402344,-9.37741947174072,3.03552389144897,-3.62851333618164,38.25366973876953,-13.63422870635986,25.98383712768555
447,482929575,166.40567016601562,48.29256820678711,82.22697448730469,-9.00031661987305,2.94173240661621,-3.39157128334045,40.96936416625977,-18.32654190063477,25.92680168151855
448,482937908,166.47355651855469,48.39428329467773,81.82158660888672,-8.73184585571289,3.04762578010559,-3.12063956260681,44.60800933837891,-20.19582748413086,26.00465202331543
449,482946241,166.53981018066406,48.50763702392578,81.40322113037109,-8.63265419006348,3.07572793960571,-2.93669366836548,45.96620178222656,-20.80396842956543,26.13308906555176
450,482954574,166.61071777343750,48.61899566650391,80.98438262939453,-8.47951030731201,3.17373061180115,-3.13168334960938,46.30064010620117,-21.46730041503906,26.68443679809570
451,482962907,166.66111755371094,48.73736190795898,80.54154968261719,-8.39447689056396,3.42846822738647,-3.23837542533875,46.39028930664062,-21.70354080200195,27.74663543701172
452,482971240,166.69857788085938,48.83954620361328,80.09877777099609,-8.30570030212402,3.40325188636780,-3.43397712707520,44.58044052124023,-20.74509048461914,28.67575454711914
453,482979573,166.71632385253906,48.93401336669922,79.63862609863281,-8.29627037048340,3.58453822135925,-3.62326598167419,44.19298171997070,-19.13843536376953,29.60819435119629
454,482987906,166.72247314453125,49.02570343017578,79.17778015136719,-8.64203739166260,3.61824393272400,-3.22532677650452,42.57501983642578,-19.79141807556152,30.23491859436035
455,482996239,166.71737670898438,49.12764739990234,78.71537780761719,-8.22736740112305,3.43461036682129,-3.86640477180481,41.77798080444336,-19.98908424377441,29.40450477600098
456,483004572,166.73706054687500,49.20745086669922,78.26604461669922,-8.12959861755371,4.12132310867310,-3.57751679420471,43.27104949951172,-18.15746498107910,29.55405044555664
457,483012905,166.70512390136719,49.26905059814453,77.81945037841797,-8.24630546569824,3.85000705718994,-3.37097764015198,37.25397109985352,-14.95295619964600,29.17468833923340
458,483021238,166.66336059570312,49.36909103393555,77.34515380859375,-8.71329498291016,3.50828313827515,-2.77270817756653,38.26321411132812,-20.97267913818359,30.77884483337402
459,483029571,166.62223815917969,49.51210021972656,76.86879730224609,-7.96682119369507,3.00865507125854,-3.41006016731262,38.99552917480469,-24.97222709655762,28.97867202758789
460,483037904,166.64367675781250,49.60378265380859,76.42942047119141,-7.39542579650879,3.63202929496765,-3.87173795700073,42.81206512451172,-19.35153007507324,28.17223358154297
461,483046237,166.61764526367188,49.62636566162109,76.00350189208984,-8.03185558319092,3.62192225456238,-3.35042452812195,36.32877731323242,-9.97315216064453,28.34867095947266
462,483054570,166.58277893066406,49.64650726318359,75.55621337890625,-8.71014785766602,3.34872865676880,-3.63451004028320,36.82428741455078,-11.14621162414551,30.69732856750488
463,483062903,166.53849792480469,49.70972442626953,75.06661224365234,-8.92288112640381,3.81440353393555,-3.23327398300171,40.01462173461914,-15.87136173248291,31.93940544128418
464,483071236,166.49485778808594,49.77660751342773,74.60039520263672,-8.66621017456055,3.63925933837891,-2.98979043960571,37.56848907470703,-16.97294235229492,30.72957038879395
465,483079569,166.45903015136719,49.85734939575195,74.12646484375000,-8.39317989349365,3.34132409095764,-3.24762105941772,39.70897674560547,-17.62372589111328,30.11265754699707
466,483087902,166.43814086914062,49.93013000488281,73.68167877197266,-8.42663288116455,3.55639743804932,-3.25391364097595,38.42559432983398,-17.28551292419434,28.82437896728516
467,483096235,166.40322875976562,50.00353622436523,73.22534942626953,-8.35111713409424,3.35611605644226,-3.72856998443604,38.30294799804688,-16.42689323425293,28.83698081970215
468,483104568,166.39889526367188,50.05233001708984,72.77014160156250,-8.43534946441650,3.62592267990112,-3.78549361228943,41.45134353637695,-14.67534160614014,30.17620658874512
469,483112901,166.36763000488281,50.10151672363281,72.29637908935547,-8.81558418273926,3.75511741638184,-3.24967169761658,40.42406463623047,-13.90021419525146,30.70297431945801
470,483121234,166.34985351562500,50.14692687988281,71.83810424804688,-8.62406635284424,3.51681852340698,-3.59913325309753,40.17618560791016,-14.34234237670898,30.42447090148926
471,483129567,166.33181762695312,50.19662857055664,71.36378479003906,-8.57090854644775,3.85449647903442,-3.38620615005493,42.14051055908203,-13.94806480407715,30.61507415771484
472,483137900,166.31047058105469,50.22272872924805,70.92843627929688,-8.65366172790527,3.47516918182373,-3.37978148460388,37.68859863281250,-11.68047523498535,29.19471931457520
473,483146233,166.28717041015625,50.25760269165039,70.48094940185547,-8.60612487792969,3.37456917762756,-3.69412970542908,39.08480453491211,-11.70905971527100,28.93260955810547
474,483154566,166.29292297363281,50.26022720336914,70.06908416748047,-8.40167045593262,3.73671555519104,-3.90584802627563,38.80202102661133,-8.52374362945557,28.07304382324219
475,483162899,166.28305053710938,50.24422836303711,69.66946411132812,-8.72755336761475,3.93569636344910,-3.73923397064209,36.30978393554688,-4.88990783691406,26.77414894104004
476,483171232,166.25732421875000,50.23707199096680,69.28163909912109,-9.27006435394287,3.50173115730286,-3.40707659721375,32.79666137695312,-6.95880937576294,26.56962394714355
477,483179565,166.25178527832031,50.25930404663086,68.86623382568359,-8.95718765258789,3.51554036140442,-3.92782163619995,37.76885223388672,-10.89722728729248,27.77743911743164
478,483187898,166.26150512695312,50.26091003417969,68.43025970458984,-8.76759147644043,4.52204561233521,-3.69218587875366,42.03722381591797,-7.58408594131470,28.93335533142090
479,483196231,166.22534179687500,50.23513412475586,68.00718688964844,-9.30640220642090,4.72070837020874,-3.15361094474792,35.34528732299805,-4.13519525527954,28.71387672424316
480,483204564,166.16339111328125,50.26198196411133,67.57869720458984,-9.61186504364014,4.06008052825928,-3.21334576606750,32.20571517944336,-11.69652938842773,28.61787223815918
481,483212897,166.10104370117188,50.37433624267578,67.12522888183594,-9.05389213562012,3.45356178283691,-3.34259724617004,35.06700897216797,-20.78072929382324,26.89676856994629
482,483221230,166.10742187500000,50.46035385131836,66.70732116699219,-8.25935649871826,3.59665822982788,-3.60050964355469,39.52003860473633,-18.41031265258789,25.99661445617676
483,483229563,166.09706115722656,50.49454879760742,66.29513549804688,-8.61527252197266,4.32048845291138,-3.16575121879578,37.60277938842773,-10.87541580200195,25.93437385559082
484,483237896,166.05261230468750,50.51850509643555,65.88564300537109,-9.16974258422852,4.30308485031128,-3.26247406005859,32.68988800048828,-11.02882862091064,27.09916114807129
485,483246229,165.96969604492188,50.60326766967773,65.42587280273438,-9.15329074859619,4.21442461013794,-3.35878157615662,33.35493469238281,-17.61701583862305,27.84896469116211
486,483254562,165.91445922851562,50.69987869262695,64.96705627441406,-8.87060737609863,4.24543762207031,-3.33606171607971,36.05205535888672,-20.44222831726074,28.50761795043945
487,483262895,165.82392883300781,50.80256271362305,64.49645996093750,-8.94648361206055,4.08494806289673,-3.16500663757324,33.59558486938477,-19.90719413757324,27.89410018920898
488,483271228,165.74848937988281,50.90167617797852,64.04994964599609,-8.84581184387207,3.85021567344666,-3.39019656181335,32.60028457641602,-20.54598617553711,27.33101844787598
489,483279561,165.67230224609375,51.00679397583008,63.62201690673828,-8.93341541290283,3.76715350151062,-3.05426716804504,30.84458160400391,-20.92807388305664,25.69108772277832
490,483287894,165.58364868164062,51.11868286132812,63.18943405151367,-8.80495071411133,3.60878944396973,-3.25132417678833,30.47238349914551,-20.28940200805664,24.46893310546875
491,483296227,165.50823974609375,51.22715759277344,62.76353073120117,-8.84390926361084,3.77958583831787,-3.22874689102173,31.51592445373535,-19.73797798156738,23.94165420532227
492,483304560,165.45185852050781,51.30702972412109,62.37856292724609,-8.70676803588867,3.99013924598694,-3.33943510055542,29.36959266662598,-17.23097610473633,23.04245567321777
493,483312893,165.38394165039062,51.37133026123047,61.99132537841797,-8.92458248138428,4.43460750579834,-3.18917131423950,28.23838996887207,-15.48948764801025,23.61173629760742
494,483321226,165.25679016113281,51.45918655395508,61.56546783447266,-9.18162727355957,4.47659158706665,-2.95727562904358,25.42156028747559,-17.35312843322754,24.24985694885254
495,483329559,165.10877990722656,51.57423019409180,61.13258361816406,-9.08883285522461,4.27521991729736,-2.70754313468933,23.68004798889160,-20.64148902893066,23.77185058593750
496,483337892,164.98521423339844,51.70099639892578,60.72542953491211,-8.87003421783447,4.07987976074219,-2.65536260604858,23.57961463928223,-23.21905326843262,22.83992385864258
497,483346225,164.85671997070312,51.83339691162109,60.33101272583008,-8.67772483825684,3.84168910980225,-2.78694415092468,21.86124038696289,-23.67023468017578,21.61096382141113
498,483354558,164.69111633300781,51.98477172851562,59.91842269897461,-8.64115333557129,3.86191487312317,-2.73187637329102,19.86386299133301,-24.49829292297363,20.68564605712891
499,483362891,164.52467346191406,52.13187026977539,59.51929473876953,-8.28564071655273,3.71944069862366,-3.24418950080872,18.56566429138184,-23.72305870056152,19.63961791992188
500,483371224,164.37846374511719,52.25540542602539,59.12920761108398,-8.30633735656738,4.17362546920776,-2.87854480743408,19.53864860534668,-22.66562652587891,21.14228248596191
501,483379557,164.20007324218750,52.37247085571289,58.75323867797852,-8.49799919128418,4.02884483337402,-2.70866489410400,14.39514827728271,-21.69465827941895,20.21147918701172
502,483387890,164.01130676269531,52.51544189453125,58.33817672729492,-8.24851703643799,3.88378047943115,-3.34560847282410,17.61179161071777,-23.64524459838867,20.38066864013672
503,483396223,163.83148193359375,52.61498260498047,57.93218994140625,-7.90407085418701,4.75253438949585,-3.32545495033264,17.90415000915527,-18.46278572082520,20.97970581054688
504,483404556,163.61204528808594,52.67727279663086,57.58548355102539,-8.67334079742432,4.81828832626343,-2.28244853019714,6.83219099044800,-14.93347835540771,19.61078071594238
505,483412889,163.37165832519531,52.79730224609375,57.22444152832031,-9.02640724182129,3.17312550544739,-2.92196536064148,5.73214912414551,-21.95838165283203,18.52695465087891
506,483421222,163.17553710937500,52.97021865844727,56.82344055175781,-7.92527580261230,3.51407933235168,-3.38168025016785,15.66551685333252,-26.95063400268555,17.61256027221680
507,483429555,163.02160644531250,53.04842758178711,56.48134231567383,-7.48616600036621,4.71159791946411,-3.22726988792419,15.13502693176270,-14.82548904418945,16.63225555419922
508,483437888,162.82928466796875,53.04669570922852,56.19322967529297,-8.92202377319336,4.29279136657715,-2.87439727783203,4.64262008666992,-6.58075952529907,17.40555572509766
509,483446221,162.59094238281250,53.12715148925781,55.82947921752930,-9.39597988128662,3.47944521903992,-3.16392350196838,6.39781284332275,-17.69908905029297,19.63612937927246
510,483454554,162.35342407226562,53.26622772216797,55.40192031860352,-8.36368465423584,3.97314381599426,-3.28636956214905,13.43224716186523,-23.77639770507812,19.96388244628906
511,483462887,162.13563537597656,53.35000228881836,55.02009582519531,-8.39424133300781,3.72662234306335,-2.97102141380310,11.47057342529297,-16.47220420837402,18.64645385742188
512,483471220,161.94020080566406,53.42289733886719,54.66139602661133,-9.20725154876709,3.53958988189697,-3.01958489418030,11.19038105010986,-16.90693092346191,19.20756530761719
513,483479553,161.74342346191406,53.54467010498047,54.26562881469727,-8.86578273773193,3.57541584968567,-2.94331622123718,14.64937305450439,-23.37044906616211,19.77458000183105
514,483487886,161.51737976074219,53.67964935302734,53.82642745971680,-8.19089698791504,3.62697458267212,-3.07167220115662,16.15605545043945,-23.69888114929199,20.15549468994141
515,483496219,161.27763366699219,53.78989028930664,53.37027740478516,-8.29939270019531,3.40522384643555,-3.35009527206421,16.23219299316406,-21.28843307495117,22.01363754272461
516,483504552,161.07446289062500,53.88612747192383,52.92366790771484,-8.62142276763916,3.39975905418396,-3.42157030105591,18.97553062438965,-21.79326629638672,23.69040298461914
517,483512885,160.88131713867188,53.97258758544922,52.48055267333984,-8.57163810729980,3.45979404449463,-3.28551530838013,19.89527702331543,-20.68346786499023,23.69763946533203
518,483521218,160.66955566406250,54.05945587158203,52.00691986083984,-8.62161064147949,3.57925438880920,-3.24622869491577,21.44000053405762,-19.20230102539062,23.59244155883789
519,483529551,160.47082519531250,54.13124465942383,51.55137252807617,-8.92476081848145,3.65258312225342,-3.13210535049438,21.30101013183594,-17.10469055175781,22.81637763977051
520,483537884,160.32246398925781,54.20565414428711,51.12691879272461,-9.37770843505859,3.89870595932007,-3.04723119735718,23.57845687866211,-19.06395721435547,22.58152580261230
521,483546217,160.16401672363281,54.30127334594727,50.69770812988281,-9.38017845153809,3.94401764869690,-2.87277293205261,22.88016319274902,-21.63073730468750,21.92577552795410
522,483554550,159.97679138183594,54.42655563354492,50.23410797119141,-9.26333713531494,3.74738788604736,-3.19382047653198,23.61257743835449,-23.43244552612305,20.73169136047363
523,483562883,159.83416748046875,54.52591705322266,49.78423690795898,-8.74751853942871,4.08552265167236,-3.61232781410217,27.68470954895020,-20.14841842651367,20.69219398498535
524,483571216,159.68846130371094,54.58951568603516,49.36806106567383,-9.56543540954590,4.92983150482178,-2.13712692260742,23.28465843200684,-17.81628036499023,22.02320671081543
525,483579549,159.47143554687500,54.70696640014648,48.90990829467773,-10.16768741607666,3.62368679046631,-2.56709027290344,18.88797187805176,-24.96197128295898,22.38263130187988
526,483587882,159.23318481445312,54.93486404418945,48.34474563598633,-9.28657722473145,3.55375862121582,-2.51140785217285,27.72583389282227,-37.47080230712891,22.17467689514160
527,483596215,159.09352111816406,55.12492370605469,47.87504959106445,-8.14367675781250,3.67801022529602,-2.96995615959167,30.26653289794922,-30.80367851257324,17.26687240600586
528,483604548,159.03282165527344,55.23048782348633,47.51591873168945,-8.69633865356445,4.19522428512573,-2.92125487327576,28.17897224426270,-21.25019836425781,15.95471954345703
529,483612881,158.89721679687500,55.34072113037109,47.11384201049805,-9.70422077178955,4.43527793884277,-2.70635294914246,23.47533416748047,-22.85409927368164,18.38998031616211
530,483621214,158.64199829101562,55.53498840332031,46.58018493652344,-9.85178470611572,4.31575918197632,-2.51425600051880,22.94203186035156,-32.82218933105469,20.52860260009766
531,483629547,158.36250305175781,55.77790069580078,46.00851821899414,-9.47277641296387,3.99087238311768,-2.67540550231934,23.93328666687012,-39.15185546875000,20.36549758911133
532,483637880,158.12571716308594,56.03165054321289,45.46310424804688,-9.27023410797119,3.75044536590576,-2.75030851364136,25.86575508117676,-42.49564743041992,20.28964996337891
533,483646213,157.89927673339844,56.29273986816406,44.91112899780273,-9.17081451416016,3.61758065223694,-2.78259658813477,27.92987251281738,-43.49564361572266,19.96740913391113
534,483654546,157.61151123046875,56.56666946411133,44.28564071655273,-8.96648883819580,3.84081172943115,-2.82814192771912,28.81708335876465,-43.90202713012695,20.93274307250977
535,483662879,157.30419921875000,56.83774948120117,43.63646316528320,-8.96930122375488,3.99672675132751,-2.76002335548401,29.01579856872559,-44.13288497924805,21.91699790954590
536,483671212,157.03598022460938,57.08926773071289,43.02256011962891,-8.94315052032471,3.86166691780090,-2.61531019210815,29.64794540405273,-44.00475311279297,22.81128501892090
537,483679545,156.77706909179688,57.34320831298828,42.39269638061523,-8.80373096466064,3.75929498672485,-2.64202022552490,32.55651473999023,-44.70485687255859,23.19353294372559
538,483687878,156.48893737792969,57.60599517822266,41.70603561401367,-8.47075748443604,3.57257294654846,-2.87903976440430,35.66085815429688,-44.15050888061523,22.96581077575684
539,483696211,156.24124145507812,57.83850860595703,41.05012512207031,-8.23309516906738,3.91624736785889,-2.80301761627197,37.57608032226562,-39.99584960937500,22.05731773376465
540,483704544,156.04981994628906,58.03796386718750,40.47591400146484,-8.51721000671387,4.23933410644531,-2.45922017097473,35.49918365478516,-37.27595901489258,21.28293991088867
541,483712877,155.76290893554688,58.25391769409180,39.81493377685547,-8.72522354125977,4.18939685821533,-2.46148538589478,33.69652175903320,-38.28935623168945,22.28363609313965
542,483721210,155.53033447265625,58.48571395874023,39.18450546264648,-8.72360134124756,4.45641231536865,-2.35317158699036,36.57950210571289,-42.28881454467773,22.18650817871094
543,483729543,155.24415588378906,58.72776412963867,38.50193405151367,-8.47668743133545,4.15838670730591,-2.54193091392517,36.32123184204102,-41.66360092163086,21.24690437316895
544,483737876,155.01229858398438,58.95317840576172,37.86779022216797,-8.54500484466553,4.40323781967163,-2.43755650520325,37.36697006225586,-41.68209838867188,21.85942268371582
545,483746209,154.71850585937500,59.17226028442383,37.19004058837891,-8.63168239593506,4.40068006515503,-2.38568496704102,35.24567794799805,-38.99936676025391,21.14443969726562
546,483754542,154.47007751464844,59.37991714477539,36.56409835815430,-8.85552883148193,4.49525308609009,-2.20672345161438,34.82731246948242,-39.54778289794922,21.48927688598633
547,483762875,154.12509155273438,59.62024307250977,35.84187316894531,-9.01354598999023,4.08620500564575,-2.24049639701843,34.01908493041992,-42.45304489135742,21.49045944213867
548,483771208,153.84594726562500,59.87531661987305,35.16268539428711,-8.67047977447510,3.83383226394653,-2.51601195335388,36.97606658935547,-46.08075714111328,20.99326896667480
549,483779541,153.53401184082031,60.13278961181641,34.43964385986328,-8.42909240722656,3.98748421669006,-2.61087775230408,38.42357635498047,-44.26052856445312,19.46098899841309
550,483787874,153.30715942382812,60.35579299926758,33.82360076904297,-8.55744457244873,4.31747531890869,-2.09867906570435,37.02466583251953,-40.90625381469727,18.35703659057617
551,483796207,152.94200134277344,60.61302566528320,33.06459045410156,-9.06490898132324,4.14629554748535,-2.29659390449524,36.15227890014648,-45.11774063110352,20.25480461120605
552,483804540,152.62054443359375,60.88190460205078,32.31282806396484,-8.92921924591064,3.88586759567261,-2.47754096984863,40.19615936279297,-49.40555191040039,21.96446037292480
553,483812873,152.25582885742188,61.15571975708008,31.50482940673828,-8.50269985198975,3.92510128021240,-2.71601295471191,41.72632217407227,-48.12110900878906,20.52754211425781
554,483821206,151.99114990234375,61.39504241943359,30.80037689208984,-8.48031520843506,4.22810506820679,-2.49049210548401,42.43473815917969,-44.92612838745117,20.00852012634277
555,483829539,151.63168334960938,61.63399505615234,30.01336479187012,-8.64514923095703,4.31028366088867,-2.49307417869568,40.53550338745117,-43.78843307495117,20.14696121215820
556,483837872,151.33827209472656,61.87141418457031,29.28907775878906,-8.81063175201416,4.55449485778809,-2.49014449119568,41.41619873046875,-45.20882034301758,20.06840133666992
557,483846205,150.96751403808594,62.10499954223633,28.49938774108887,-8.93635368347168,4.53475999832153,-2.32368540763855,39.82362365722656,-43.24281311035156,19.34451103210449
558,483854538,150.64151000976562,62.33186340332031,27.75378417968750,-9.23442459106445,4.45456457138062,-2.20291447639465,40.09980392456055,-44.63418960571289,20.65355873107910
559,483862871,150.23248291015625,62.58097457885742,26.90474700927734,-9.38844776153564,4.18034601211548,-2.10423278808594,41.89583587646484,-46.42992019653320,20.01384735107422
560,483871204,149.92666625976562,62.79334640502930,26.16586303710938,-9.08212089538574,4.57997083663940,-2.33764338493347,42.14375305175781,-42.90225601196289,20.07734107971191
561,483879537,149.51664733886719,63.03413009643555,25.35046005249023,-9.59326076507568,5.61303997039795,-0.96215826272964,38.52131271362305,-44.56092834472656,17.58388710021973
562,483887870,149.06843566894531,63.28643035888672,24.49806594848633,-10.35616493225098,3.59203982353210,-1.94886493682861,37.54037857055664,-50.12768936157227,21.77588653564453
563,483896203,148.56149291992188,63.58656311035156,23.50861740112305,-9.09783077239990,3.40741753578186,-2.75887966156006,45.91373062133789,-55.35952377319336,20.33743095397949
564,483904536,148.29998779296875,63.81346893310547,22.82392120361328,-8.73990917205811,4.97950792312622,-2.05140614509583,42.33794784545898,-42.75916290283203,14.29398345947266
565,483912869,147.83726501464844,64.03754425048828,21.95566940307617,-9.89135932922363,5.04779052734375,-2.32726502418518,38.57789230346680,-44.09100341796875,18.10557174682617
566,483921202,147.41165161132812,64.29296875000000,21.08575439453125,-9.83991050720215,4.78210449218750,-2.20794248580933,42.94035339355469,-50.73724365234375,19.54170417785645
567,483929535,146.91268920898438,64.54492950439453,20.14278411865234,-9.84466266632080,4.51898574829102,-2.14022970199585,42.67972564697266,-48.91618728637695,18.00617408752441
568,483937868,146.52058410644531,64.78759765625000,19.32211112976074,-9.92817783355713,4.61351394653320,-2.08716583251953,42.01509857177734,-47.95120239257812,16.78275299072266
569,483946201,146.01693725585938,65.03019714355469,18.37900733947754,-10.23575210571289,4.50767326354980,-1.78332066535950,42.50579071044922,-47.84211730957031,16.99110031127930
570,483954534,145.58258056640625,65.28353881835938,17.49016952514648,-10.30024433135986,4.28708600997925,-1.90981304645538,44.72365570068359,-50.80961227416992,17.51002883911133
571,483962867,145.06770324707031,65.54132843017578,16.50999259948730,-9.98825073242188,4.53095245361328,-1.82790446281433,45.55167007446289,-50.21497344970703,15.78600692749023
572,483971200,144.63694763183594,65.80112457275391,15.62255859375000,-10.00078296661377,4.54629993438721,-1.67174875736237,45.39698410034180,-51.21447372436523,15.46490287780762
573,483979533,144.07777404785156,66.07707214355469,14.58920764923096,-9.61556148529053,4.36030483245850,-1.69075369834900,46.45051956176758,-53.26553344726562,14.81666278839111
574,483987866,143.63549804687500,66.34721374511719,13.68912982940674,-9.24096202850342,4.23726463317871,-1.66452503204346,45.81086349487305,-52.32960128784180,13.60274314880371
575,483996199,143.07186889648438,66.61826324462891,12.66564369201660,-8.97588729858398,4.06468057632446,-1.86203300952911,45.24046325683594,-52.21408081054688,12.83044433593750
576,484004532,142.63310241699219,66.87470245361328,11.78244495391846,-8.63690376281738,3.71380233764648,-2.20867347717285,44.77254104614258,-50.24352645874023,12.31118679046631
577,484012865,142.11761474609375,67.10556793212891,10.81087779998779,-8.25526714324951,3.95973515510559,-2.66078853607178,45.66819381713867,-46.64344787597656,12.01577281951904
578,484021198,141.73785400390625,67.30026245117188,9.99602031707764,-8.51559066772461,4.44220829010010,-2.12208056449890,44.61967468261719,-42.19393920898438,12.96375465393066
579,484029531,141.20150756835938,67.48409271240234,9.01333904266357,-8.96922302246094,4.03981781005859,-2.30093002319336,44.69723892211914,-42.42141723632812,14.45527744293213
580,484037864,140.83410644531250,67.65245056152344,8.20732688903809,-8.57611751556396,4.62131690979004,-2.50306987762451,45.35966491699219,-39.34837722778320,13.52741909027100
581,484046197,140.33990478515625,67.78928375244141,7.28643321990967,-9.03921794891357,5.30867242813110,-2.16160821914673,43.13533020019531,-36.25467681884766,14.57893276214600
582,484054530,139.87170410156250,67.93100738525391,6.40180158615112,-9.57769680023193,5.01652574539185,-2.05301356315613,42.18988800048828,-39.12557983398438,17.33291053771973
583,484062863,139.22479248046875,68.08399200439453,5.32661247253418,-9.32893657684326,4.33073902130127,-2.21426081657410,42.17298889160156,-42.30012512207031,17.37205314636230
584,484071196,138.73274230957031,68.24566650390625,4.42148637771606,-8.81978321075439,4.18809413909912,-2.34543108940125,41.82078933715820,-41.55992126464844,15.29294013977051
585,484079529,138.12489318847656,68.39281463623047,3.40434455871582,-8.72292804718018,4.54958915710449,-2.21498131752014,40.62336349487305,-40.15529632568359,14.43913078308105
586,484087862,137.59729003906250,68.53790283203125,2.47926473617554,-9.03038311004639,4.71083545684814,-1.76595842838287,39.98736572265625,-40.65056228637695,16.08225059509277
587,484096195,136.98806762695312,68.69013977050781,1.45893895626068,-9.19033050537109,4.28609275817871,-1.78921282291412,40.94738388061523,-44.13435745239258,17.96278381347656
588,484104528,136.23069763183594,68.83815002441406,0.27496063709259,-8.87448406219482,4.21602439880371,-1.79056751728058,41.63911056518555,-45.30225372314453,17.50339698791504
589,484112861,135.44381713867188,68.97954559326172,-0.92309284210205,-8.93524169921875,4.10058116912842,-1.42478656768799,39.78229904174805,-45.27514648437500,17.52345085144043
590,484121194,134.74713134765625,69.14099884033203,-2.02300214767456,-8.73837757110596,3.58682751655579,-1.87664759159088,39.70920181274414,-47.40311431884766,17.28344535827637
591,484129527,134.09413146972656,69.28751373291016,-3.08341884613037,-8.10188293457031,4.36525917053223,-2.11749458312988,40.64992523193359,-44.96672439575195,16.59641647338867
592,484137860,133.31221008300781,69.39052581787109,-4.24737644195557,-8.58913421630859,4.72006797790527,-1.80500864982605,36.85429382324219,-41.24518966674805,17.26032257080078
593,484146193,132.40682983398438,69.50189971923828,-5.54855585098267,-8.84462738037109,4.62765455245972,-1.92709600925446,37.55960083007812,-46.39484024047852,19.55798339843750
594,484154526,131.56866455078125,69.64096832275391,-6.77716827392578,-8.56215000152588,4.40025997161865,-1.65388286113739,37.62006378173828,-49.77011108398438,19.57727813720703
595,484162859,130.68843078613281,69.79822540283203,-8.04223060607910,-8.19149875640869,3.60160374641418,-2.15353488922119,36.81170272827148,-52.43307876586914,17.94779586791992
596,484171192,129.71401977539062,69.92590332031250,-9.42891883850098,-7.39786815643311,4.35586643218994,-2.37906241416931,39.21706771850586,-50.79968261718750,17.23385047912598
597,484179525,128.77009582519531,70.00965118408203,-10.75520515441895,-7.77231025695801,4.83520317077637,-1.79472041130066,36.18215942382812,-45.82037734985352,18.60430717468262
598,484187858,127.77436828613281,70.11683654785156,-12.13772773742676,-8.46977519989014,4.55412387847900,-0.82915455102921,36.51297760009766,-52.71247482299805,22.49868583679199
599,484196191,126.60595703125000,70.26321411132812,-13.70252704620361,-8.14443397521973,3.08794713020325,-1.67343878746033,36.49420166015625,-61.67916870117188,22.02662086486816
600,484204524,125.34693908691406,70.39282989501953,-15.40196895599365,-6.77643680572510,3.87177872657776,-1.94286513328552,40.77468109130859,-61.95513153076172,19.52686882019043
601,484212857,124.19711303710938,70.48181915283203,-16.93202400207520,-6.87894058227539,4.43251132965088,-1.69778299331665,34.84634399414062,-53.92163848876953,18.03875541687012
602,484221190,123.05702972412109,70.57510375976562,-18.43246841430664,-7.52989625930786,4.09730863571167,-2.24326395988464,32.98406219482422,-56.48751831054688,21.47431182861328
603,484229523,121.82939147949219,70.65056610107422,-20.05269432067871,-7.39254188537598,4.69417762756348,-2.12244391441345,36.12498855590820,-59.67076492309570,24.53600311279297
604,484237856,120.45093536376953,70.67623901367188,-21.81777572631836,-7.69035673141479,4.72373485565186,-1.45761775970459,34.18704605102539,-59.03820419311523,25.28907775878906
605,484246189,118.83495330810547,70.71853637695312,-23.83619499206543,-8.48435306549072,3.56293749809265,-1.08605933189392,34.41036605834961,-69.59100341796875,26.76582908630371
606,484254522,117.09996032714844,70.82810974121094,-26.00638580322266,-7.97736787796021,2.69234323501587,-0.94976174831390,37.74164962768555,-82.19922637939453,26.16162109375000
607,484262855,115.29188537597656,70.95020294189453,-28.26217651367188,-6.84129571914673,2.69047665596008,-1.08944380283356,38.84752655029297,-86.31208801269531,23.53267478942871
608,484271188,113.34777069091797,71.01432800292969,-30.64488983154297,-5.96830606460571,2.73212456703186,-1.61703515052795,36.57569503784180,-85.60150909423828,22.90634346008301
609,484279521,111.40084075927734,71.02581024169922,-33.01368713378906,-5.64709234237671,3.02850651741028,-1.44134402275085,34.68138504028320,-83.63439941406250,25.46021080017090
610,484287854,109.49214172363281,71.01757049560547,-35.31294631958008,-6.02856254577637,3.32767963409424,-1.19217538833618,31.91105461120605,-83.99694824218750,29.82995986938477
611,484296187,107.44993591308594,70.96790313720703,-37.75035858154297,-6.38874244689941,3.38381600379944,-1.41712307929993,31.51885795593262,-88.76667785644531,33.38664245605469
612,484304520,105.23599243164062,70.84091186523438,-40.40532684326172,-6.45240116119385,3.64152336120605,-1.38477098941803,34.74158477783203,-93.42169952392578,35.45154190063477
613,484312853,103.01863098144531,70.68844604492188,-43.06311035156250,-6.73788928985596,4.02705478668213,-0.64217555522919,34.36439132690430,-95.22389984130859,34.86443710327148
614,484321186,100.79527282714844,70.56398010253906,-45.68764114379883,-7.57106494903564,3.94600534439087,0.00128523260355,30.34097480773926,-99.39177703857422,33.71689224243164
615,484329519,98.43858337402344,70.42709350585938,-48.44128417968750,-7.70008134841919,3.81561398506165,0.53015518188477,28.71582221984863,-106.30895996093750,32.18013763427734
616,484337852,95.86356353759766,70.21818542480469,-51.42639541625977,-7.41594696044922,3.57502532005310,0.37679952383041,27.38221931457520,-114.36077880859375,31.33546638488770
617,484346185,93.15609741210938,69.96432495117188,-54.54322433471680,-6.79409503936768,3.02397680282593,-0.31190687417984,25.74039077758789,-122.35865783691406,31.81842994689941
618,484354518,90.51979827880859,69.69845581054688,-57.60618591308594,-6.12697792053223,2.11050081253052,-1.46636891365051,28.70771980285645,-125.85786437988281,33.49740219116211
619,484362851,88.02554321289062,69.36942291259766,-60.56290054321289,-5.54930591583252,1.80737566947937,-2.49016141891479,33.14881515502930,-124.80342102050781,35.45216369628906
620,484371184,85.67582702636719,68.93109893798828,-63.39176559448242,-5.35477209091187,1.97146964073181,-2.65625023841858,33.98482894897461,-121.39713287353516,37.36988067626953
621,484379517,83.48589324951172,68.44335174560547,-66.05905151367188,-5.67627143859863,2.22772383689880,-2.89232635498047,34.10418701171875,-119.45610046386719,38.81205368041992
622,484387850,81.43484497070312,67.97433471679688,-68.58631896972656,-6.21249198913574,2.54888916015625,-2.62706279754639,35.51406478881836,-119.19355010986328,38.56230545043945
623,484396183,79.43231964111328,67.46981811523438,-71.11321258544922,-6.88438320159912,2.61369156837463,-2.29800724983215,40.33658218383789,-123.65146636962891,38.14102172851562
624,484404516,77.45841979980469,66.89114379882812,-73.69092559814453,-7.60853242874146,2.15175437927246,-2.20295548439026,46.77956390380859,-129.81852722167969,35.59119796752930
625,484412849,75.64704132080078,66.28923034667969,-76.17321777343750,-7.06534624099731,2.09252834320068,-2.48344397544861,54.51168060302734,-130.54818725585938,34.37696075439453
626,484421182,73.96152496337891,65.73268890380859,-78.55608367919922,-7.60699081420898,2.05820870399475,-2.90458798408508,59.03474044799805,-129.87579345703125,31.51654243469238
627,484429515,72.41996002197266,65.18378448486328,-80.84004211425781,-8.72372150421143,2.01533532142639,-3.20009136199951,64.37297058105469,-128.23666381835938,27.67630004882812
628,484437848,70.99877166748047,64.58447265625000,-83.10302734375000,-9.40053749084473,0.54443931579590,-4.32445240020752,73.66746520996094,-131.02178955078125,23.86300086975098
629,484446181,69.69035339355469,64.02087402343750,-85.37602233886719,-9.01281833648682,-1.28354322910309,-5.79677629470825,87.15080261230469,-133.61094665527344,15.78363132476807
630,484454514,68.52287292480469,63.54325103759766,-87.62511444091797,-8.25156116485596,-1.50510823726654,-6.66786813735962,102.08737945556641,-132.00166320800781,8.56664752960205
631,484462847,67.53568267822266,63.04947662353516,-89.81280517578125,-8.13097476959229,-0.28442516922951,-6.60418128967285,116.11441802978516,-131.76855468750000,8.36103343963623
632,484471180,66.70252990722656,62.47461318969727,-91.97810363769531,-8.38989067077637,1.33265805244446,-6.07153749465942,129.38980102539062,-136.69296264648438,9.45362567901611
633,484479513,65.97646331787109,61.87661743164062,-94.13264465332031,-8.37523651123047,3.36158204078674,-5.28929185867310,140.01075744628906,-140.35418701171875,9.58708763122559
634,484487846,65.29016113281250,61.23171615600586,-96.31908416748047,-9.38035583496094,5.74818229675293,-3.68261098861694,148.39904785156250,-145.91862487792969,16.46258163452148
635,484496179,64.57804107666016,60.48722839355469,-98.64949798583984,-10.73437309265137,6.46297979354858,-1.49073302745819,158.85697937011719,-161.37614440917969,20.76949310302734
636,484504512,63.81385803222656,59.70339965820312,-101.09296417236328,-10.72267246246338,5.64291191101074,-0.09783549606800,160.74957275390625,-174.30123901367188,13.48181343078613
637,484512845,62.97687911987305,58.94153976440430,-103.66703796386719,-9.84347724914551,4.35195875167847,0.01504229009151,163.42590332031250,-183.94581604003906,3.67979645729065
638,484521178,62.03026962280273,58.19763946533203,-106.39387512207031,-9.65331077575684,4.97672986984253,0.78173160552979,165.70234680175781,-192.70494079589844,-2.07561397552490
639,484529511,60.99749755859375,57.41442108154297,-109.19815826416016,-9.01368236541748,5.02173805236816,2.31386327743530,158.81562805175781,-204.84890747070312,-10.15521049499512
640,484537844,59.85652160644531,56.68961715698242,-112.11110687255859,-6.10619401931763,3.91697502136230,2.41291832923889,156.50700378417969,-208.39112854003906,-20.66591072082520
641,484546177,58.87130737304688,56.01003265380859,-114.87945556640625,-3.30305838584900,4.89784288406372,1.41258060932159,156.04980468750000,-202.57597351074219,-30.62293815612793
642,484554510,57.68828964233398,55.47530746459961,-117.65448760986328,-1.56789231300354,8.23109817504883,-0.95494323968887,133.36701965332031,-193.30136108398438,-46.45691299438477
643,484562843,56.78221893310547,55.17553329467773,-119.89499664306641,-0.13730594515800,14.16554832458496,-3.29103016853333,109.76520538330078,-150.83293151855469,-59.42667770385742
644,484571176,56.19311523437500,55.05814361572266,-121.69550323486328,-2.83917331695557,18.02980422973633,1.24781870841980,106.63651275634766,-110.92089080810547,-58.95471572875977
645,484579509,55.79164123535156,54.87658691406250,-123.24282836914062,-5.36180591583252,17.59904479980469,5.38986063003540,100.64846038818359,-103.22050476074219,-48.78543090820312
646,484587842,55.27301788330078,54.70317459106445,-124.80162811279297,-5.36602878570557,14.35733127593994,5.14851188659668,90.69103240966797,-100.80183410644531,-46.36193847656250
647,484596175,54.85720062255859,54.57859420776367,-126.25181579589844,-4.35953950881958,13.24540615081787,5.75510168075562,88.24260711669922,-93.46936798095703,-52.84275817871094
648,484604508,54.38684463500977,54.54777145385742,-127.70135498046875,-5.97386074066162,12.98754501342773,6.93908977508545,85.37710571289062,-84.46887969970703,-57.85712051391602
649,484612841,53.99894332885742,54.49560928344727,-129.09230041503906,-8.42307949066162,13.29779338836670,7.10307216644287,85.12377929687500,-84.25743103027344,-59.13903045654297
650,484621174,53.49282455444336,54.46213150024414,-130.54472351074219,-9.25153541564941,13.36726760864258,6.53759002685547,81.21651458740234,-84.11385345458984,-59.13002014160156
651,484629507,53.05091857910156,54.44176864624023,-131.91542053222656,-8.96271133422852,12.32672786712646,4.93872547149658,76.15107727050781,-79.92812347412109,-62.81147384643555
652,484637840,52.50294876098633,54.53042221069336,-133.32165527343750,-7.53040599822998,11.08862781524658,3.42314219474792,71.69322204589844,-71.68569946289062,-70.25760650634766
653,484646173,52.07660675048828,54.68975830078125,-134.62442016601562,-6.38934707641602,10.04209232330322,2.38861155509949,71.30712890625000,-61.71985626220703,-78.14067840576172
654,484654506,51.60508346557617,54.97341537475586,-135.94065856933594,-5.96152734756470,8.89543628692627,1.57007157802582,72.63500213623047,-50.55955886840820,-85.46595001220703
655,484662839,51.32043838500977,55.30162048339844,-137.14759826660156,-6.01752138137817,8.51721000671387,1.51967632770538,79.43893432617188,-42.09903717041016,-90.06514739990234
656,484671172,50.98803710937500,55.66946792602539,-138.41334533691406,-6.52929973602295,8.76088905334473,2.44513416290283,85.36920928955078,-39.38230133056641,-90.85378265380859
657,484679505,50.77693557739258,56.01091003417969,-139.61781311035156,-6.95950126647949,8.87346267700195,2.86393880844116,88.82523345947266,-39.13700866699219,-90.70851135253906
658,484687838,50.44497680664062,56.35160827636719,-140.94129943847656,-7.25655412673950,9.59772300720215,3.09368491172791,92.21780395507812,-42.40130996704102,-90.18679809570312
659,484696171,50.17778778076172,56.62913131713867,-142.24893188476562,-7.45419073104858,9.85171222686768,3.17675518989563,93.08779144287109,-47.52169799804688,-88.68206787109375
660,484704504,49.75285339355469,56.89359283447266,-143.67536926269531,-7.91507387161255,9.47595310211182,2.83423280715942,92.27769470214844,-51.43564605712891,-87.15307617187500
661,484712837,49.39719390869141,57.12222671508789,-145.06005859375000,-7.79409074783325,8.75050067901611,1.28111660480499,90.73923492431641,-53.32200241088867,-87.29266357421875
662,484721170,48.90993881225586,57.36454772949219,-146.54243469238281,-7.56952810287476,8.18657779693604,0.42171806097031,91.23952484130859,-53.79411315917969,-87.44747161865234
663,484729503,48.52113723754883,57.57198715209961,-147.95970153808594,-7.55737018585205,7.52918291091919,-0.34699302911758,90.57525634765625,-54.78869628906250,-86.77197265625000
664,484737836,48.03105163574219,57.78001403808594,-149.46783447265625,-7.16569519042969,7.43122339248657,-0.42675253748894,94.22782135009766,-55.59469604492188,-85.54344940185547
665,484746169,47.67385482788086,57.93766784667969,-150.91096496582031,-7.34546422958374,7.78708505630493,0.25893104076385,97.43350219726562,-58.41725540161133,-83.50891113281250
666,484754502,47.17604827880859,58.07613754272461,-152.47161865234375,-7.24560070037842,7.98129940032959,0.68197083473206,99.20855712890625,-61.79972839355469,-81.87679290771484
667,484762835,46.85142898559570,58.15597915649414,-153.95190429687500,-6.85353994369507,8.15765476226807,1.17097926139832,105.31278991699219,-65.16233825683594,-78.56700134277344
668,484771168,46.41743850708008,58.22168731689453,-155.50752258300781,-6.18441247940063,7.74807214736938,1.63098132610321,106.67253112792969,-66.07969665527344,-75.81395721435547
669,484779501,46.20112228393555,58.25453567504883,-156.92686462402344,-5.55406808853149,6.96952676773071,1.44974744319916,112.02875518798828,-65.35099792480469,-72.26618194580078
670,484787834,45.96296691894531,58.27415084838867,-158.37416076660156,-5.11924743652344,7.07063531875610,1.72055125236511,119.24523925781250,-64.11344146728516,-67.58126831054688
671,484796167,45.97399520874023,58.29346084594727,-159.64662170410156,-4.79801797866821,6.62214279174805,1.03925466537476,124.14270782470703,-59.50749206542969,-64.81703186035156
672,484804500,45.97758102416992,58.36692428588867,-160.90103149414062,-3.95475292205811,7.25788450241089,0.74395662546158,128.65853881835938,-50.62825775146484,-63.78669357299805
673,484812833,46.20747375488281,58.51598739624023,-161.94544982910156,-3.51408576965332,6.87983846664429,-0.37135043740273,127.05727386474609,-38.42230224609375,-65.62014770507812
674,484821166,46.41568374633789,58.73503112792969,-163.01516723632812,-3.25373005867004,9.04721641540527,0.33211725950241,134.69825744628906,-30.08019447326660,-67.69835662841797
