sep=,
DeviceTag:,Xsens DOT
FirmwareVersion:,2.1.0
AppVersion:,2022.0.0
StartTime: ,2022-08-15_19:16:32_000 EDT
© Xsens Technologies B. V. 2005-2022

PacketCounter,SampleTimeFine,Euler_X,Euler_Y,Euler_Z,Acc_X,Acc_Y,Acc_Z,Gyr_X,Gyr_Y,Gyr_Z
0,507854946,100.16767883300781,62.94874572753906,-13.18130683898926,0.00000000000000,0.00000000000000,0.00000000000000,0.00000000000000,0.00000000000000,0.00000000000000
1,507863279,100.42882537841797,63.22060775756836,-12.93824005126953,-6.78012371063232,3.01951074600220,-1.42448675632477,4.92112779617310,8.13894557952881,-36.99071502685547
2,507871612,101.13616943359375,63.52764511108398,-11.91778945922852,-6.46265220642090,2.53173661231995,-1.96338486671448,9.16679477691650,6.77652263641357,-36.07489776611328
3,507879945,101.45502471923828,63.76339721679688,-11.71990489959717,-6.32090806961060,2.61836361885071,-1.89505350589752,16.58974266052246,5.76940727233887,-32.33819580078125
4,507888278,102.20639038085938,64.00694274902344,-10.74171829223633,-6.15053462982178,2.58612418174744,-1.86444890499115,22.49728965759277,7.03441953659058,-28.60586738586426
5,507896611,103.13156127929688,64.19564056396484,-10.12625789642334,-6.19780158996582,2.70320868492126,-1.69081926345825,27.08467674255371,5.83265018463135,-24.07063484191895
6,507904944,103.49076080322266,64.33319854736328,-9.98500442504883,-5.96720170974731,2.85313868522644,-1.30340099334717,27.44830131530762,4.32390451431274,-20.28830909729004
7,507913277,104.21543884277344,64.44328308105469,-9.55993270874023,-5.58868741989136,2.63039803504944,-1.60404586791992,28.57887077331543,3.21096563339233,-17.92017364501953
8,507921610,104.47918701171875,64.53194427490234,-9.56961631774902,-5.58002042770386,2.97676277160645,-1.47624826431274,32.31042480468750,-2.15935873985291,-12.71420097351074
9,507929943,105.00199890136719,64.52287292480469,-9.41079044342041,-5.65910100936890,3.55766820907593,-1.06905436515808,34.26469802856445,-6.66964673995972,-5.96927595138550
10,507938276,105.04336547851562,64.53127288818359,-9.69608211517334,-5.77017498016357,3.92607378959656,-0.67976999282837,35.48384857177734,-13.52054405212402,0.31135427951813
11,507946609,104.94054412841797,64.51918792724609,-10.12900543212891,-5.69410848617554,4.11771297454834,-0.61853182315826,34.17836761474609,-20.24920845031738,4.65425443649292
12,507954942,104.76386260986328,64.35456848144531,-10.65555667877197,-5.59693336486816,4.33197450637817,-0.52708166837692,33.14686203002930,-27.54874610900879,8.26535606384277
13,507963275,104.27072906494141,64.12056732177734,-11.44634151458740,-5.40065860748291,4.20549440383911,-0.51492744684219,29.64804077148438,-33.42375183105469,9.86503219604492
14,507971608,103.78478240966797,64.10237121582031,-12.23456859588623,-5.08487796783447,3.90501809120178,-0.47196829319000,26.40274429321289,-38.57847976684570,9.59895229339600
15,507979941,103.21784210205078,64.09985351562500,-13.07569408416748,-4.76307296752930,3.65393519401550,-0.35284835100174,22.38102149963379,-41.83849334716797,8.05881786346436
16,507988274,102.42308807373047,63.89204788208008,-14.09671783447266,-4.34886455535889,3.20155000686646,-0.33547371625900,19.70580101013184,-45.62247848510742,5.48836040496826
17,507996607,101.60981750488281,63.72391891479492,-15.14494609832764,-3.80894398689270,2.60250616073608,-0.93083918094635,20.47751235961914,-47.75177764892578,3.00579881668091
18,508004940,100.98020935058594,63.76871109008789,-16.08415412902832,-3.25980925559998,2.52806639671326,-1.34316313266754,25.15159225463867,-48.98237991333008,1.96137678623199
19,508013273,100.40798950195312,63.79378128051758,-16.96592330932617,-3.01233386993408,2.75973296165466,-1.56280195713043,25.88082504272461,-45.53409576416016,3.18901824951172
20,508021606,99.87836456298828,63.60168457031250,-17.81464958190918,-3.41444706916809,3.06644153594971,-1.53379535675049,25.48946762084961,-46.49276733398438,7.32029724121094
21,508029939,99.39820098876953,63.34465789794922,-18.65320014953613,-3.84484910964966,3.04889225959778,-1.44416975975037,24.59000968933105,-53.23697280883789,12.22375297546387
22,508038272,98.53487396240234,63.27261352539062,-19.87882995605469,-4.04054737091064,2.79905390739441,-1.54362237453461,27.42711257934570,-62.95040512084961,16.30213546752930
23,508046605,97.59368133544922,63.17411422729492,-21.24713706970215,-4.09808826446533,2.85632181167603,-1.26881229877472,33.27112197875977,-70.62378692626953,19.54947090148926
24,508054938,96.97548675537109,62.87109375000000,-22.36783218383789,-4.21063137054443,2.90127992630005,-1.18813371658325,34.51156616210938,-73.09097290039062,20.59513664245605
25,508063271,96.36478424072266,62.59040069580078,-23.50306701660156,-4.29733848571777,2.86801099777222,-1.42028427124023,36.38343811035156,-74.90697479248047,20.14009094238281
26,508071604,95.44224548339844,62.47232437133789,-24.91680717468262,-4.29575347900391,3.07429599761963,-1.57891011238098,39.43953323364258,-75.42174530029297,19.60348510742188
27,508079937,94.53772735595703,62.34597396850586,-26.32996368408203,-4.50274848937988,3.26839923858643,-1.45084214210510,41.37567520141602,-75.96518707275391,19.40084075927734
28,508088270,94.06399536132812,62.06259155273438,-27.40649795532227,-4.81686639785767,3.38137245178223,-1.73686373233795,43.46533584594727,-76.52751922607422,19.93196296691895
29,508096603,93.63311004638672,61.76405715942383,-28.49346923828125,-5.28504371643066,4.00542545318604,-1.59257936477661,47.60760116577148,-79.95235443115234,21.33551025390625
30,508104936,92.70521545410156,61.60070419311523,-29.99636459350586,-5.65736865997314,4.40577507019043,-1.92421698570251,47.03506469726562,-83.37593078613281,21.75639152526855
31,508113269,91.72852325439453,61.43383789062500,-31.56395339965820,-5.91000890731812,4.71223831176758,-2.29639983177185,47.76224136352539,-87.90967559814453,20.94260597229004
32,508121602,91.26132202148438,61.12357711791992,-32.70443725585938,-6.06926727294922,4.90802192687988,-2.92852258682251,45.75318908691406,-88.53144836425781,18.32429504394531
33,508129935,90.99488067626953,60.80371093750000,-33.66358947753906,-6.41478347778320,5.40747690200806,-3.68876075744629,44.83721542358398,-85.98580932617188,15.54537105560303
34,508138268,90.15563964843750,60.67901229858398,-35.05806350708008,-7.02588653564453,6.21093416213989,-4.59458398818970,44.89888381958008,-80.67752075195312,13.23857402801514
35,508146601,89.31589508056641,60.53795623779297,-36.38432693481445,-7.95832538604736,7.26719951629639,-4.07236433029175,37.51678848266602,-77.22693634033203,14.02382183074951
36,508154934,89.41596984863281,60.20881652832031,-36.88493347167969,-8.32553577423096,6.64643096923828,-5.45350933074951,28.76880455017090,-74.87595367431641,11.15786933898926
37,508163267,89.83696746826172,59.87249755859375,-37.17223358154297,-8.86839485168457,7.07782125473022,-5.98383092880249,34.82410049438477,-74.68097686767578,7.31289482116699
38,508171600,89.15322875976562,59.81318283081055,-38.27476501464844,-9.24848651885986,8.18381214141846,-6.15934181213379,31.95024490356445,-65.57301330566406,3.96902084350586
39,508179933,88.43397521972656,59.76679229736328,-39.34443283081055,-9.97481250762939,8.11847019195557,-6.42368412017822,24.23138236999512,-63.73444366455078,1.65743982791901
40,508188266,89.17130279541016,59.50331115722656,-39.27998733520508,-9.91902542114258,7.67054080963135,-6.80838346481323,22.98928070068359,-69.34020996093750,-3.20919704437256
41,508196599,90.20242309570312,59.29008102416992,-38.97340774536133,-9.68446731567383,7.69564533233643,-6.73925638198853,22.40517997741699,-66.88632965087891,-9.86781215667725
42,508204932,89.50961303710938,59.40133666992188,-39.96529769897461,-9.50710773468018,7.65368747711182,-6.62485694885254,18.84701156616211,-59.70761489868164,-16.08108711242676
43,508213265,88.92625427246094,59.55135345458984,-40.85420608520508,-9.31903266906738,7.29715776443481,-7.50422239303589,21.48837852478027,-52.97282409667969,-21.29920196533203
44,508221598,90.50315093994141,59.46765899658203,-40.01671981811523,-9.26260471343994,7.96617937088013,-6.85818672180176,25.29777526855469,-44.34676361083984,-23.94850540161133
45,508229931,92.34413146972656,59.36812973022461,-38.89620590209961,-9.10608863830566,8.24670410156250,-6.83197498321533,21.28020858764648,-35.28931808471680,-25.31257820129395
46,508238264,92.10707092285156,59.56507492065430,-39.39228439331055,-9.12583732604980,9.11610126495361,-6.86887836456299,22.39306831359863,-30.20033836364746,-25.04410743713379
47,508246597,91.86064910888672,59.73303222656250,-39.84032440185547,-9.52376461029053,10.00154781341553,-6.02269077301025,16.41622352600098,-26.89923286437988,-21.77663612365723
48,508254930,93.81748199462891,59.53542709350586,-38.53874969482422,-9.55925369262695,9.27282714843750,-6.58571910858154,14.22558879852295,-29.29283332824707,-21.41619110107422
49,508263263,95.84325408935547,59.24340057373047,-37.17747497558594,-9.67624950408936,10.04210948944092,-6.51736307144165,18.17715072631836,-24.10783958435059,-21.89538192749023
50,508271596,95.84788513183594,59.41883468627930,-37.33188247680664,-9.98104667663574,10.09088420867920,-6.51364183425903,16.04698562622070,-10.61636638641357,-22.60076332092285
51,508279929,95.80245208740234,59.59502029418945,-37.49610900878906,-10.72744750976562,10.12100505828857,-5.93016481399536,11.09856414794922,-11.15026664733887,-22.61297798156738
52,508288262,97.87772369384766,59.22993850708008,-36.00088119506836,-10.80172538757324,9.28479099273682,-7.21180868148804,12.35814857482910,-15.42931079864502,-24.23418617248535
53,508296595,100.00193786621094,58.80799865722656,-34.42414474487305,-11.08855819702148,9.72911548614502,-7.44915342330933,12.07851505279541,-6.55279159545898,-24.21814727783203
54,508304928,100.19582366943359,58.95164489746094,-34.36964797973633,-11.57067489624023,10.60881614685059,-7.18853664398193,17.20944786071777,1.22682011127472,-20.20632553100586
55,508313261,100.26760864257812,59.14667892456055,-34.40526962280273,-11.52693939208984,9.00556278228760,-5.96641540527344,11.84145641326904,-5.38654947280884,-25.25440025329590
56,508321594,102.41477966308594,58.67772674560547,-32.86191558837891,-10.76021194458008,8.89414310455322,-6.38606500625610,19.38542175292969,-7.70248794555664,-24.44442939758301
57,508329927,104.46314239501953,58.21998596191406,-31.42062950134277,-10.98854064941406,8.60632133483887,-4.52096986770630,22.32022857666016,-7.54478311538696,-25.82668304443359
58,508338260,104.66900634765625,58.45218658447266,-31.45434570312500,-10.26666641235352,7.76968383789062,-4.20562458038330,27.67896270751953,-8.15085887908936,-29.09595298767090
59,508346593,104.87104797363281,58.63837051391602,-31.59672164916992,-10.71823596954346,8.91353034973145,-3.06990623474121,38.36821365356445,-13.39155769348145,-21.96575927734375
60,508354926,106.60368347167969,58.19281005859375,-30.61830329895020,-10.77229881286621,8.89616298675537,-0.38740468025208,40.21563339233398,-25.68419647216797,-18.37523460388184
61,508363259,107.88840484619141,57.80901336669922,-30.03348350524902,-9.77203178405762,7.73075056076050,-0.36550441384315,41.48727035522461,-33.31075286865234,-19.18118667602539
62,508371592,107.90115356445312,58.00817489624023,-30.37714385986328,-9.19673633575439,8.26262760162354,-1.12970018386841,35.99331283569336,-27.29027938842773,-18.68812942504883
63,508379925,108.86973571777344,57.65538406372070,-29.83231353759766,-9.26908779144287,7.86998510360718,-0.81485444307327,21.48051643371582,-20.12392044067383,-21.25852966308594
64,508388258,108.85263061523438,57.90308761596680,-29.98821640014648,-8.96387958526611,6.83054304122925,-0.97539371252060,13.30556964874268,-18.14578056335449,-27.58442878723145
65,508396591,109.60208129882812,57.67550277709961,-29.49211883544922,-8.56670951843262,5.96182250976562,-1.51323950290680,10.77570629119873,-14.78870677947998,-32.95954895019531
66,508404924,109.72472381591797,57.96271896362305,-29.46530342102051,-8.43991184234619,6.47928762435913,-1.44679558277130,11.52169418334961,-9.08143615722656,-35.71973419189453
67,508413257,110.39986419677734,57.76118850708008,-28.94766426086426,-9.49165916442871,6.89402246475220,-0.97079282999039,6.17963314056396,-5.66131496429443,-33.16401672363281
68,508421590,110.49725341796875,58.02801895141602,-28.89621162414551,-9.53388309478760,6.43707513809204,-1.09881258010864,5.98304319381714,-7.21184825897217,-33.83997344970703
69,508429923,110.99524688720703,57.88547134399414,-28.54611206054688,-9.71881389617920,6.43045043945312,-0.29481616616249,8.72371959686279,-8.88028621673584,-33.07221603393555
70,508438256,111.16532135009766,58.18771362304688,-28.44854354858398,-9.39756298065186,5.10887813568115,-0.50667357444763,10.00811004638672,-6.36208534240723,-38.76441955566406
71,508446589,111.66490936279297,58.15224456787109,-28.08616256713867,-9.91207599639893,5.56721162796021,0.02422860264778,13.79871654510498,-3.37423205375671,-40.32028579711914
72,508454922,111.93789672851562,58.48155593872070,-27.89076423645020,-9.93333244323730,4.88850069046021,-0.21066509187222,12.33874416351318,-2.34032559394836,-43.95973968505859
73,508463255,112.37419891357422,58.54044723510742,-27.57287597656250,-9.81436252593994,5.43472242355347,-0.09320964664221,15.91501235961914,-1.37633228302002,-43.80147552490234
74,508471588,112.66222381591797,58.84975814819336,-27.37447738647461,-10.22330951690674,5.04817485809326,-0.18960499763489,13.75558376312256,-1.88860452175140,-41.72346115112305
75,508479921,113.02090454101562,58.93826293945312,-27.15014839172363,-9.84117984771729,5.42911291122437,-0.51127439737320,20.40669059753418,-0.80611985921860,-39.99128341674805
76,508488254,113.41472625732422,59.20662307739258,-26.90249061584473,-10.17879676818848,6.17634439468384,-0.17987205088139,21.30500602722168,2.23976325988770,-38.31269454956055
77,508496587,113.65965270996094,59.30233383178711,-26.72990226745605,-10.48938369750977,5.53616571426392,-0.70860338211060,15.79191684722900,1.56254744529724,-37.13694000244141
78,508504920,114.03073120117188,59.56217956542969,-26.45482254028320,-10.05290317535400,5.96406841278076,-1.01343011856079,15.64824676513672,3.65013647079468,-38.00355529785156
79,508513253,114.25759124755859,59.70003509521484,-26.25764465332031,-10.15864562988281,5.52182388305664,-0.87501138448715,13.30960083007812,4.68619585037231,-40.13959503173828
80,508521586,114.66448211669922,59.97608184814453,-25.85838699340820,-10.07988357543945,5.82640171051025,-1.35025000572205,6.94786119461060,9.09715557098389,-42.81562805175781
81,508529919,114.86289978027344,60.16428756713867,-25.58983993530273,-10.04853820800781,5.03149271011353,-1.69893550872803,3.90885496139526,8.61051082611084,-45.78870773315430
82,508538252,115.32801818847656,60.47337722778320,-25.05454635620117,-9.25482463836670,4.85400295257568,-2.26836991310120,-0.44719997048378,13.97624874114990,-49.77884674072266
83,508546585,115.70503234863281,60.68213272094727,-24.56246948242188,-9.01652622222900,4.41342163085938,-2.50834989547729,1.29494392871857,19.38435363769531,-51.50426483154297
84,508554918,116.36347198486328,60.96575164794922,-23.85888671875000,-8.93524265289307,4.56006765365601,-2.34006357192993,4.83970832824707,22.94948196411133,-51.34556961059570
85,508563251,116.91356658935547,61.14668273925781,-23.23522567749023,-8.95030403137207,4.77331447601318,-2.51181960105896,6.71502208709717,25.86889266967773,-50.29727554321289
86,508571584,117.62965393066406,61.36894989013672,-22.53274345397949,-8.74629402160645,5.01790666580200,-2.71536660194397,11.56999111175537,24.71447944641113,-44.97949981689453
87,508579917,118.22376251220703,61.45776367187500,-21.93841171264648,-8.04249954223633,5.25256872177124,-2.31315374374390,14.03182792663574,27.29065322875977,-39.79702377319336
88,508588250,118.99205780029297,61.57370376586914,-21.20138168334961,-7.98258733749390,5.70601272583008,-1.59933185577393,14.01320648193359,31.27432060241699,-35.10878753662109
89,508596583,119.53025054931641,61.55699920654297,-20.63610839843750,-8.19528770446777,5.85946559906006,-1.05078387260437,11.15361022949219,31.17575645446777,-30.32931900024414
90,508604916,120.17376708984375,61.61198806762695,-19.96171379089355,-7.96786355972290,5.86209058761597,-0.85449683666229,5.59949827194214,31.02236175537109,-27.59080123901367
91,508613249,120.46656036376953,61.54338455200195,-19.55002021789551,-7.73367452621460,5.62881517410278,-0.75039517879486,0.34414041042328,28.38466262817383,-23.31745719909668
92,508621582,120.91727447509766,61.55805206298828,-18.97001647949219,-7.45005846023560,5.62587070465088,-0.38739582896233,-7.55510520935059,28.51936721801758,-21.14003944396973
93,508629915,120.97255706787109,61.45418548583984,-18.65972900390625,-7.52409982681274,5.36186885833740,-0.38150256872177,-14.99584579467773,27.82102203369141,-18.88035011291504
94,508638248,121.30853271484375,61.44505310058594,-18.06318283081055,-7.19175767898560,5.23910713195801,-0.59190064668655,-22.99918746948242,30.75822448730469,-19.45862770080566
95,508646581,121.18740844726562,61.31491088867188,-17.78150749206543,-7.28329324722290,5.06992006301880,-0.96670103073120,-31.08585357666016,30.21367645263672,-16.59552001953125
96,508654914,121.32678222656250,61.28582763671875,-17.30861091613770,-7.21051692962646,4.81519317626953,-0.98353910446167,-33.48587799072266,26.01771545410156,-13.86083316802979
97,508663247,121.05844116210938,61.14591598510742,-17.12822341918945,-6.66302728652954,4.42484998703003,-1.37808263301849,-37.16553115844727,26.95536041259766,-12.95178604125977
98,508671580,121.12743377685547,61.07187652587891,-16.67440414428711,-6.69530200958252,4.21070861816406,-1.61198019981384,-39.82899475097656,28.03195953369141,-8.68362808227539
99,508679913,120.75494384765625,60.88267517089844,-16.60041618347168,-6.88207721710205,4.05642175674438,-1.13033747673035,-38.61619567871094,24.57522773742676,-4.29077672958374
100,508688246,120.68315887451172,60.78216934204102,-16.29708862304688,-6.82452201843262,4.12867164611816,-0.86555230617523,-40.82302093505859,22.32296371459961,-1.39907777309418
101,508696579,120.15230560302734,60.58189392089844,-16.37452697753906,-6.87437391281128,3.99937319755554,-0.70048409700394,-41.70220184326172,18.16015243530273,2.40145421028137
102,508704912,119.93576049804688,60.47658538818359,-16.20695686340332,-6.57864665985107,3.79768061637878,-0.49467045068741,-43.91349029541016,15.80251502990723,3.27743744850159
103,508713245,119.31896972656250,60.30161666870117,-16.30630111694336,-6.05983924865723,3.42640757560730,-0.58553832769394,-49.39096832275391,16.21924018859863,1.74716389179230
104,508721578,119.07153320312500,60.21147918701172,-16.09680557250977,-5.60312271118164,2.80543541908264,-0.61571794748306,-51.94022369384766,17.08103942871094,0.64784979820251
105,508729911,118.44974517822266,60.04278564453125,-16.21327209472656,-5.32014417648315,2.83110857009888,-0.07796845585108,-48.60795974731445,15.19105434417725,3.30930256843567
106,508738244,118.13952636718750,59.93993759155273,-16.15551757812500,-5.46364307403564,3.03478455543518,0.99810844659805,-43.63899612426758,9.81958007812500,6.51395463943481
107,508746577,117.34317016601562,59.79114151000977,-16.54857254028320,-5.63213109970093,3.02827095985413,1.49558496475220,-40.29801940917969,0.45479428768158,10.57015323638916
108,508754910,116.86644744873047,59.70579147338867,-16.73318862915039,-5.25395298004150,2.50065422058105,1.26944041252136,-38.47972869873047,-4.35027647018433,11.49006175994873
109,508763243,116.39820098876953,59.59722518920898,-16.90261459350586,-4.98429250717163,2.30430364608765,0.52029871940613,-39.06539916992188,-2.42946243286133,13.54304790496826
110,508771576,115.60321044921875,59.43551635742188,-17.28604698181152,-4.60135746002197,2.02677369117737,0.06703673303127,-40.10560226440430,3.04378294944763,13.18560123443604
111,508779909,114.93977355957031,59.24294281005859,-17.50988388061523,-4.37455844879150,2.05189442634583,-0.41167810559273,-41.24360275268555,13.42717361450195,14.03763675689697
112,508788242,114.68831634521484,59.03310775756836,-17.41447639465332,-4.79151058197021,2.14027523994446,-0.16613665223122,-40.40243911743164,16.82429313659668,17.68050193786621
113,508796575,114.35836791992188,58.81773757934570,-17.37795066833496,-5.12693786621094,2.29839968681335,-0.10471346229315,-43.76099014282227,13.70350456237793,19.86545753479004
114,508804908,113.55284881591797,58.57999420166016,-17.71596336364746,-5.61736202239990,2.30337357521057,0.11804819107056,-47.46800994873047,7.84818363189697,23.72403144836426
115,508813241,112.72941589355469,58.35944366455078,-18.09049034118652,-5.82356071472168,1.91907572746277,0.16116385161877,-46.48936080932617,4.37206602096558,24.38659095764160
116,508821574,112.28247833251953,58.14282608032227,-18.12645530700684,-5.89665222167969,1.78009974956512,-0.32830116152763,-50.35565567016602,8.78397750854492,22.17165756225586
117,508829907,111.83222198486328,57.91766357421875,-18.15035438537598,-6.62649869918823,1.50981521606445,-0.42718493938446,-52.00405883789062,9.66167831420898,22.90192031860352
118,508838240,111.08196258544922,57.70657348632812,-18.39442825317383,-7.41188812255859,0.62839132547379,-0.25980830192566,-51.87450408935547,10.34117507934570,22.74057579040527
119,508846573,110.49595642089844,57.52820587158203,-18.44471168518066,-7.67704153060913,0.47346365451813,-0.56752514839172,-53.11955261230469,20.15860748291016,18.32280158996582
120,508854906,110.20643615722656,57.29895019531250,-18.28186798095703,-8.84211444854736,0.06205981969833,-0.13294525444508,-51.59916305541992,20.37174034118652,19.42360305786133
121,508863239,109.98966979980469,57.10683441162109,-18.02168273925781,-9.10389900207520,0.01973223686218,0.00653382577002,-52.65303802490234,24.73327064514160,13.12798881530762
122,508871572,109.54044342041016,56.98775482177734,-17.96997451782227,-10.07811355590820,0.30903160572052,0.34258666634560,-48.38091659545898,23.70904922485352,14.64194488525391
123,508879905,109.14315795898438,56.94909286499023,-17.91674041748047,-10.81653785705566,0.18705475330353,0.77817231416702,-43.30431365966797,21.37588119506836,10.75983428955078
124,508888238,109.06494140625000,56.81825256347656,-17.59639739990234,-10.94530677795410,0.13206097483635,-0.15872180461884,-41.96799087524414,25.92859268188477,5.25995874404907
125,508896571,109.09056854248047,56.70729064941406,-17.20744132995605,-11.33744335174561,0.07135548442602,-0.23927257955074,-36.35706329345703,29.46570968627930,1.51261281967163
126,508904904,109.08542633056641,56.78378677368164,-16.78987884521484,-11.31513023376465,0.59938782453537,-0.98736387491226,-33.72145080566406,40.41662979125977,-4.52960634231567
127,508913237,109.08100891113281,56.89581298828125,-16.44793319702148,-12.77725791931152,1.46182107925415,-0.59719836711884,-27.51936721801758,34.45083236694336,-2.22690558433533
128,508921570,109.31723022460938,56.83170318603516,-15.91854190826416,-12.84155082702637,1.30095565319061,-1.47763311862946,-25.23270416259766,36.28107833862305,-6.84615850448608
129,508929903,109.63036346435547,56.75562667846680,-15.35589122772217,-12.93960666656494,1.90715050697327,-2.09783577919006,-19.30320358276367,38.84896087646484,-6.42365169525146
130,508938236,109.70755004882812,56.92441558837891,-15.05942535400391,-14.00825500488281,1.59368133544922,-1.68685698509216,-14.72105026245117,29.11824798583984,-3.69442129135132
131,508946569,109.98309326171875,57.14959716796875,-14.57947921752930,-13.21109485626221,1.72901415824890,-2.81132555007935,-11.08734226226807,37.46818542480469,-10.79777240753174
132,508954902,110.34513854980469,57.09449386596680,-14.12139606475830,-14.15526008605957,2.52996945381165,-1.55911183357239,-3.10163021087646,31.25696372985840,-6.75404453277588
133,508963235,110.65576934814453,57.07405090332031,-13.74842643737793,-14.96196556091309,2.27997779846191,-1.70336747169495,-0.67788112163544,24.59125328063965,-8.91155529022217
134,508971568,111.04891204833984,57.36717605590820,-13.31645870208740,-14.70247173309326,2.43221879005432,-2.54894351959229,5.96672773361206,30.37551116943359,-14.95045566558838
135,508979901,111.56179046630859,57.70024490356445,-12.80416679382324,-14.61327362060547,3.11163568496704,-2.20451712608337,10.83469390869141,32.71396636962891,-18.82274627685547
136,508988234,112.03401947021484,57.77590179443359,-12.32058238983154,-14.30162906646729,3.32908248901367,-1.91365444660187,7.21219491958618,26.36566925048828,-22.58745193481445
137,508996567,112.50759124755859,57.88037109375000,-11.84573459625244,-13.74818897247314,3.01824998855591,-2.43380308151245,8.21376419067383,24.28692054748535,-25.78014183044434
138,509004900,113.10489654541016,58.32104492187500,-11.28335094451904,-12.48200702667236,3.44112038612366,-2.61781525611877,14.35845470428467,28.85567855834961,-30.93948745727539
139,509013233,113.75035095214844,58.76243209838867,-10.69604969024658,-11.61220073699951,3.78016734123230,-2.19367146492004,16.40017127990723,28.52668762207031,-31.30554389953613
140,509021566,114.35445404052734,58.88292312622070,-10.17363929748535,-11.42724800109863,3.95934724807739,-1.61981189250946,18.47341156005859,24.72739219665527,-29.06725692749023
141,509029899,114.96306610107422,58.98356246948242,-9.68498516082764,-11.51124954223633,4.16873884201050,-0.89195138216019,22.42236137390137,23.43210411071777,-26.26280212402344
142,509038232,115.68306732177734,59.38407135009766,-9.06791591644287,-11.14213466644287,4.09927558898926,-1.29228889942169,21.25704956054688,29.37795448303223,-28.79867744445801
143,509046565,116.54429626464844,59.77180480957031,-8.25131416320801,-10.23214244842529,4.38262271881104,-2.29334974288940,17.56325531005859,39.83194732666016,-34.03861999511719
144,509054898,117.38863372802734,59.84725189208984,-7.38899946212769,-9.64136219024658,5.19743347167969,-1.73956620693207,11.48928356170654,43.26905441284180,-34.28567123413086
145,509063231,118.14902496337891,59.89375305175781,-6.57925558090210,-9.68114280700684,5.55328702926636,-1.24517691135406,6.82104873657227,41.53953933715820,-30.30624580383301
146,509071564,118.89177703857422,60.20276260375977,-5.80533552169800,-9.47543621063232,5.41704988479614,-1.14347887039185,6.91476821899414,38.17139434814453,-27.37965011596680
147,509079897,119.58213043212891,60.46814346313477,-5.12829971313477,-9.41481304168701,5.34779691696167,-1.14378631114960,11.16852855682373,34.44591140747070,-22.74455261230469
148,509088230,120.21788787841797,60.47308349609375,-4.53493452072144,-8.95528411865234,4.91410350799561,-1.27604019641876,13.94936656951904,31.13495635986328,-20.60960006713867
149,509096563,120.86149597167969,60.45231246948242,-3.94383120536804,-9.12081432342529,4.67942333221436,-1.63417756557465,15.13397312164307,32.37762451171875,-18.24965286254883
150,509104896,121.46160888671875,60.66255187988281,-3.44078588485718,-9.24446296691895,4.64549684524536,-1.24915599822998,18.64847755432129,27.18432998657227,-14.69116210937500
151,509113229,122.07843017578125,60.86284637451172,-2.91649270057678,-8.91036415100098,4.23158264160156,-1.65921413898468,18.77042961120605,28.03326606750488,-16.32881355285645
152,509121562,122.66685485839844,60.83564758300781,-2.43645548820496,-9.03915786743164,4.06292295455933,-1.77571916580200,19.91868972778320,26.46392822265625,-14.85501766204834
153,509129895,123.27896118164062,60.79624557495117,-1.92121863365173,-8.50858879089355,3.65384817123413,-1.93016934394836,19.08755874633789,28.86749458312988,-15.05089092254639
154,509138228,123.92292022705078,60.94273757934570,-1.41066944599152,-8.91138267517090,3.58407902717590,-1.80070805549622,23.41378402709961,29.42773437500000,-12.52348136901855
155,509146561,124.47029876708984,61.09574127197266,-1.03036737442017,-8.96932220458984,3.52276587486267,-0.90204727649689,25.47767448425293,21.83899116516113,-10.31493949890137
156,509154894,125.02658843994141,61.07083892822266,-0.66555583477020,-8.21725463867188,3.12240576744080,-1.51826465129852,28.05309295654297,20.12199401855469,-12.18452739715576
157,509163227,125.56359100341797,61.04354476928711,-0.32231733202934,-8.10207366943359,3.26687216758728,-1.28472840785980,28.01205253601074,19.17351913452148,-11.43843364715576
158,509171560,126.02461242675781,61.20740127563477,-0.01799932867289,-8.16574382781982,3.28813934326172,-0.81597715616226,23.24300003051758,16.78142166137695,-10.11637401580811
159,509179893,126.40139770507812,61.38753509521484,0.17737184464931,-8.19328594207764,3.28230404853821,-0.66991907358170,24.86325263977051,10.24584102630615,-9.08094406127930
160,509188226,126.78164672851562,61.38739776611328,0.40065953135490,-7.66467046737671,3.36207485198975,-0.88136476278305,21.73165702819824,11.35219764709473,-10.19662380218506
161,509196559,127.04725646972656,61.56469726562500,0.50484842061996,-7.90437269210815,4.10545635223389,-0.02364986762404,21.51705741882324,6.03196334838867,-6.73093795776367
162,509204892,127.30710601806641,61.58785629272461,0.62654060125351,-7.47749757766724,3.86163878440857,0.02962449565530,17.96200180053711,4.90260505676270,-8.96944236755371
163,509213225,127.47100067138672,61.79191589355469,0.69202679395676,-6.77221345901489,3.96612882614136,-0.44372236728668,14.13110828399658,2.52680659294128,-9.27998733520508
164,509221558,127.68283081054688,61.80996322631836,0.84620594978333,-6.51998233795166,3.77297639846802,-0.48223572969437,8.73897552490234,6.65874147415161,-9.59603977203369
165,509229891,127.83476257324219,61.97958374023438,0.97412288188934,-6.38542270660400,3.53727626800537,-0.44110897183418,6.57982492446899,7.62473249435425,-9.56087493896484
166,509238224,127.98862457275391,61.98781967163086,1.10341989994049,-6.55075836181641,3.42976403236389,-0.49501836299896,4.39183044433594,6.19819784164429,-7.80304479598999
167,509246557,128.12445068359375,61.99432373046875,1.24051415920258,-6.56459093093872,2.98468518257141,-0.53221231698990,1.39624488353729,6.64088821411133,-7.93823623657227
168,509254890,128.22937011718750,62.13785171508789,1.41188907623291,-6.49939966201782,2.57652854919434,-1.12780642509460,-3.31676220893860,11.20250225067139,-9.71896362304688
169,509263223,128.43615722656250,62.23743057250977,1.73637712001801,-6.23125362396240,2.17109107971191,-1.79337537288666,-7.24998474121094,20.82542228698730,-11.65691661834717
170,509271556,128.82676696777344,62.16279602050781,2.23646855354309,-6.95840024948120,2.59504318237305,-2.38842415809631,-6.58096790313721,28.52309989929199,-13.01214504241943
171,509279889,129.06794738769531,62.21908950805664,2.59146404266357,-8.24702835083008,2.89459037780762,-2.02782249450684,-6.70020151138306,24.41190528869629,-9.30104732513428
172,509288222,129.23393249511719,62.16063690185547,2.85158467292786,-8.55704402923584,2.38719558715820,-1.90933847427368,-8.05823898315430,16.79668045043945,-6.28504323959351
173,509296555,129.37931823730469,62.22043609619141,3.09766864776611,-8.10820007324219,2.19494414329529,-2.15449786186218,-6.80841922760010,18.89000511169434,-6.13064146041870
174,509304888,129.44769287109375,62.12384414672852,3.28627347946167,-9.18624496459961,2.27635884284973,-1.44116497039795,-12.17319488525391,16.60293388366699,-0.27722296118736
175,509313221,129.41595458984375,62.19789505004883,3.37855482101440,-9.96556186676025,1.49927926063538,-2.13413715362549,-11.91525745391846,10.85148525238037,-2.06422591209412
176,509321554,129.46214294433594,62.13972473144531,3.54830336570740,-9.73632907867432,1.89209187030792,-1.87786579132080,-12.83442592620850,12.86463737487793,-3.16994190216064
177,509329887,129.38735961914062,62.22238922119141,3.65428566932678,-10.03751468658447,1.93402540683746,-1.33260262012482,-18.81957817077637,10.59191322326660,-2.99863409996033
178,509338220,129.24301147460938,62.22072982788086,3.70285272598267,-10.06164455413818,1.71954703330994,-1.34940850734711,-22.83796882629395,3.31928610801697,-4.08006763458252
179,509346553,129.00213623046875,62.37132263183594,3.64410066604614,-9.86904239654541,1.54678165912628,-1.31196558475494,-21.32918548583984,-1.57063984870911,-3.18817925453186
180,509354886,128.74066162109375,62.39326095581055,3.53194165229797,-9.87875175476074,1.14948415756226,-1.33802640438080,-19.81075286865234,-5.41241836547852,-0.64068913459778
181,509363219,128.42387390136719,62.55353546142578,3.36399435997009,-9.66125965118408,0.47427502274513,-1.76984035968781,-18.92600440979004,-6.86817836761475,-0.02827812731266
182,509371552,128.21014404296875,62.57574844360352,3.27511096000671,-9.21646118164062,0.20094713568687,-2.00038576126099,-16.54100990295410,-4.40675115585327,-1.54653656482697
183,509379885,128.02966308593750,62.72889709472656,3.23288655281067,-8.97880458831787,0.10781698673964,-2.08968544006348,-16.32938766479492,-1.00891947746277,-3.14840030670166
184,509388218,127.96749877929688,62.74125671386719,3.28743028640747,-8.99360370635986,0.18477681279182,-2.34849977493286,-13.63309097290039,2.56075835227966,-5.50763845443726
185,509396551,127.96626281738281,62.87700653076172,3.39592623710632,-8.96320819854736,0.74049282073975,-2.37002062797546,-11.39305877685547,6.43377113342285,-6.03135871887207
186,509404884,128.04003906250000,62.84937286376953,3.56354236602783,-8.98864746093750,1.02856814861298,-2.54169297218323,-9.39855575561523,10.38789272308350,-5.51943302154541
187,509413217,128.10179138183594,62.93698501586914,3.69275641441345,-9.29824542999268,1.83592092990875,-1.97288537025452,-6.47112941741943,10.38543224334717,-1.90195930004120
188,509421550,128.05444335937500,62.87746047973633,3.70648336410522,-9.93157100677490,1.71697390079498,-2.06694054603577,-7.50046205520630,6.11907386779785,2.68405151367188
189,509429883,128.04304504394531,62.95244598388672,3.69115638732910,-9.84234523773193,1.82336699962616,-2.43664526939392,0.04130294919014,4.89609670639038,4.16944694519043
190,509438216,128.04023742675781,62.84954452514648,3.67212009429932,-9.89917850494385,2.51013708114624,-1.46347355842590,1.34260869026184,7.91972970962524,7.89701080322266
191,509446549,128.05691528320312,62.88556671142578,3.68393301963806,-10.11761379241943,1.93637049198151,-1.95493948459625,0.45054170489311,8.81394863128662,6.82123804092407
192,509454882,128.11053466796875,62.76221847534180,3.74614667892456,-9.92232036590576,2.86268758773804,-1.13013982772827,-0.56046515703201,12.94757366180420,7.08585882186890
193,509463215,128.10092163085938,62.77680206298828,3.79529547691345,-10.52632522583008,2.42682838439941,-1.43776261806488,-6.64315509796143,12.02285003662109,7.43546772003174
194,509471548,128.06990051269531,62.67650222778320,3.81085038185120,-10.55582427978516,2.51989316940308,-1.67501306533813,-5.73167324066162,9.23929977416992,6.49329948425293
195,509479881,128.05670166015625,62.71067810058594,3.85028862953186,-10.55744934082031,2.60536408424377,-2.05872559547424,-5.97562217712402,10.18830585479736,5.82971048355103
196,509488214,128.03097534179688,62.62311553955078,3.89327692985535,-10.41681861877441,2.76206970214844,-1.81362307071686,-8.01917648315430,9.49144458770752,4.37218379974365
197,509496547,127.91976165771484,62.68613815307617,3.90499472618103,-10.24754333496094,2.70159006118774,-1.67622888088226,-14.81322574615479,6.77976846694946,3.87931442260742
198,509504880,127.75680541992188,62.63828659057617,3.90583252906799,-10.02191734313965,1.89619135856628,-2.37534666061401,-19.99265861511230,4.71567201614380,2.07128310203552
199,509513213,127.67085266113281,62.73244857788086,3.97259807586670,-9.30760574340820,1.24329364299774,-3.05967140197754,-17.69485473632812,6.72856616973877,-0.98947811126709
200,509521546,127.66672515869141,62.67241668701172,4.10556554794312,-9.03622436523438,1.29493904113770,-2.82155680656433,-15.02239704132080,11.35749721527100,-1.19695365428925
201,509529879,127.66437530517578,62.75990295410156,4.21495532989502,-9.42217826843262,0.81926655769348,-2.54555869102478,-12.61345005035400,8.58390808105469,-1.68639016151428
202,509538212,127.65491485595703,62.72298812866211,4.29153585433960,-9.44859504699707,0.87896692752838,-2.45452094078064,-9.65052127838135,7.20957469940186,-1.48244941234589
203,509546545,127.71344757080078,62.80774307250977,4.40665388107300,-9.51140785217285,0.91425490379333,-2.43910980224609,-6.20220565795898,8.68984699249268,-1.36559748649597
204,509554878,127.74567413330078,62.75856399536133,4.48311662673950,-9.70975017547607,1.42747175693512,-1.70202970504761,-4.63958358764648,8.10627937316895,-0.30852347612381
205,509563211,127.76213073730469,62.84052658081055,4.55458402633667,-10.01777839660645,1.38071572780609,-1.45159804821014,-6.77058553695679,6.84044885635376,0.52154427766800
206,509571544,127.79071044921875,62.80134201049805,4.64281749725342,-9.81275653839111,1.25627124309540,-2.11450076103210,-6.33386278152466,7.88912153244019,-1.64379382133484
207,509579877,127.83393096923828,62.86433029174805,4.76965951919556,-9.50170803070068,1.98282456398010,-1.76765537261963,-9.60036945343018,10.57210922241211,0.58191704750061
208,509588210,127.77266693115234,62.81118011474609,4.78129100799561,-9.92759895324707,1.63100481033325,-1.95959591865540,-8.93920230865479,5.60370349884033,2.26132726669312
209,509596543,127.67206573486328,62.89020919799805,4.72787857055664,-9.52508926391602,1.94517672061920,-1.97139334678650,-7.65111303329468,1.50406801700592,5.06480550765991
210,509604876,127.50889587402344,62.83199691772461,4.59842586517334,-9.30800151824951,1.64155483245850,-2.41392540931702,-6.09905672073364,-0.15340365469456,7.48121309280396
211,509613209,127.29433441162109,62.77129745483398,4.38888072967529,-9.02617835998535,1.62764883041382,-2.05456447601318,-3.72559118270874,-3.52733659744263,10.36373805999756
212,509621542,127.04428100585938,62.83017349243164,4.14157247543335,-8.95432662963867,1.61639475822449,-1.38437402248383,-4.91629409790039,-5.63805294036865,13.30059051513672
213,509629875,126.81928253173828,62.88495254516602,3.91847920417786,-9.07423210144043,1.45153915882111,-1.77254998683929,-4.49637460708618,-4.37765312194824,12.71271800994873
214,509638208,126.51920318603516,62.81267929077148,3.62111353874207,-9.22296333312988,2.22950577735901,-1.20010745525360,-4.59762811660767,-6.66920566558838,14.32467460632324
215,509646541,126.12120819091797,62.74459075927734,3.23464488983154,-9.77356719970703,2.07175064086914,-1.45292603969574,-6.86472034454346,-11.06087207794189,16.76189994812012
216,509654874,125.72699737548828,62.82061004638672,2.83583569526672,-9.59777545928955,2.12268161773682,-1.42658126354218,-5.95344257354736,-13.75236701965332,16.01903533935547
217,509663207,125.34988403320312,62.87028121948242,2.51118731498718,-9.34925746917725,2.29577159881592,-1.58508598804474,-11.71756839752197,-8.62646770477295,15.91913700103760
218,509671540,124.91110229492188,62.79406738281250,2.16060376167297,-9.67218875885010,2.51545286178589,-0.98691600561142,-15.56383228302002,-9.21680068969727,16.20289611816406
219,509679873,124.46392822265625,62.72178649902344,1.85399270057678,-9.62114429473877,1.74844884872437,-2.01084423065186,-21.29107666015625,-7.70781469345093,14.35070228576660
220,509688206,124.04973602294922,62.76972579956055,1.56957077980042,-9.16528701782227,1.87170994281769,-1.98103868961334,-20.33899497985840,-6.87399339675903,14.37931442260742
221,509696539,123.59822845458984,62.80792617797852,1.28011083602905,-9.31796741485596,1.54670071601868,-2.05651545524597,-24.31256484985352,-6.68977689743042,15.31572246551514
222,509704872,123.14467620849609,62.73155212402344,0.95027571916580,-9.12851810455322,1.34844791889191,-2.06149029731750,-19.56856918334961,-8.83607101440430,15.30831909179688
223,509713205,122.66671752929688,62.64120101928711,0.60255318880081,-8.87088489532471,1.97512686252594,-1.79315435886383,-20.61877822875977,-8.96260547637939,17.16173934936523
224,509721538,122.12026977539062,62.67825698852539,0.16122454404831,-8.88136768341064,2.20343613624573,-1.40356051921844,-19.58660888671875,-14.11670875549316,19.68398094177246
225,509729871,121.42101287841797,62.71894454956055,-0.45630332827568,-8.69805908203125,2.81867575645447,-0.72828733921051,-19.07808303833008,-22.82358169555664,24.00185012817383
226,509738204,120.54764556884766,62.63609313964844,-1.22491860389709,-8.48116683959961,2.59685993194580,-0.69697105884552,-23.19419479370117,-29.91505050659180,28.03103065490723
227,509746537,119.56847381591797,62.54485702514648,-2.10596394538879,-8.17455673217773,2.34143662452698,-0.56863379478455,-23.98558998107910,-35.40613555908203,31.53406143188477
228,509754870,118.49858093261719,62.55509567260742,-3.06252336502075,-8.06110191345215,1.90627813339233,-0.66107559204102,-27.15288543701172,-38.24518585205078,34.68173599243164
229,509763203,117.39344024658203,62.54124069213867,-4.06541061401367,-8.01236057281494,1.62836086750031,-0.20863780379295,-26.29535102844238,-39.64899063110352,37.35928726196289
230,509771536,116.24383544921875,62.38276672363281,-5.13749742507935,-8.09247398376465,1.75600850582123,0.59475034475327,-24.21352195739746,-43.22616577148438,41.54406356811523
231,509779869,115.18619537353516,62.21017837524414,-6.19742488861084,-7.74827098846436,1.74642002582550,1.11376631259918,-14.64171123504639,-43.03500747680664,42.01864624023438
232,509788202,114.16324615478516,62.12058639526367,-7.25086593627930,-7.26194000244141,2.76363539695740,1.80912494659424,-10.96049499511719,-40.47354125976562,44.33033370971680
233,509796535,113.12480163574219,62.01539993286133,-8.30618286132812,-7.05303955078125,2.72541570663452,1.43004310131073,-12.36651802062988,-40.27017211914062,45.02957916259766
234,509804868,112.15085601806641,61.77783966064453,-9.26832962036133,-6.38380289077759,3.09196853637695,1.15832340717316,-15.36029338836670,-37.92848205566406,45.00637054443359
235,509813201,111.09239196777344,61.50365447998047,-10.27073574066162,-6.38417530059814,3.33998513221741,1.21233332157135,-21.49841880798340,-39.72484207153320,49.36480331420898
236,509821534,109.97223663330078,61.33561325073242,-11.31439685821533,-6.18240690231323,2.69658899307251,1.17406511306763,-23.43552589416504,-39.86453628540039,49.25679016113281
237,509829867,108.86234283447266,61.14628601074219,-12.27126407623291,-6.17667055130005,2.55259680747986,0.86799889802933,-31.21099281311035,-35.27970504760742,48.70660018920898
238,509838200,107.83841705322266,60.84845352172852,-13.13222694396973,-6.86463689804077,1.83617794513702,0.24555823206902,-32.83914184570312,-34.97560882568359,47.47549438476562
239,509846533,106.80500793457031,60.53925323486328,-13.97643470764160,-6.91221189498901,2.17365312576294,-0.13552644848824,-36.00482177734375,-35.00381851196289,47.93318557739258
240,509854866,105.71514129638672,60.31671905517578,-14.86529541015625,-7.26330184936523,2.06797647476196,-0.04817980527878,-36.31650161743164,-33.89682388305664,49.21105575561523
241,509863199,104.64501190185547,60.08844757080078,-15.71153545379639,-7.17576122283936,2.36300301551819,0.24258944392204,-38.50120162963867,-32.56395339965820,48.39398956298828
242,509871532,103.68214416503906,59.73923873901367,-16.46846389770508,-7.28591108322144,2.25544309616089,0.48017808794975,-37.27695846557617,-32.55939102172852,49.57624053955078
243,509879865,102.71131896972656,59.38080596923828,-17.20160675048828,-7.28644514083862,2.43496274948120,0.53856265544891,-40.97845840454102,-32.27004241943359,49.82231521606445
244,509888198,101.62446594238281,59.11897659301758,-17.97952079772949,-7.47187328338623,1.65372669696808,0.05226515978575,-48.12065887451172,-31.25170135498047,49.55384445190430
245,509896531,100.60767364501953,58.85771560668945,-18.68674659729004,-7.41254806518555,1.06036829948425,-0.37125298380852,-47.15618133544922,-28.21854019165039,47.97259902954102
246,509904864,99.79488372802734,58.49097442626953,-19.16658401489258,-7.57573127746582,1.00994622707367,-0.11188296228647,-48.67291641235352,-20.30999755859375,46.44207763671875
247,509913197,99.03823089599609,58.11917495727539,-19.54721260070801,-8.43571472167969,1.29392242431641,0.53366124629974,-52.26444244384766,-15.04745674133301,45.73425292968750
248,509921530,98.18644714355469,57.84121704101562,-20.00451087951660,-9.49972915649414,1.03610956668854,0.61982977390289,-53.44092178344727,-15.52939319610596,46.49802780151367
249,509929863,97.42781829833984,57.58171844482422,-20.36693191528320,-9.41285419464111,1.74685454368591,0.66899991035461,-52.05665969848633,-10.60853767395020,43.53659820556641
250,509938196,96.74336242675781,57.18704605102539,-20.59146690368652,-10.52332401275635,1.19839358329773,0.66898101568222,-59.76081466674805,-7.19202709197998,46.64421081542969
251,509946529,96.15322113037109,56.80665969848633,-20.78727149963379,-10.29643249511719,1.57494914531708,0.41311973333359,-51.43431091308594,-6.24272632598877,44.61478424072266
252,509954862,95.50039672851562,56.52188873291016,-20.99679756164551,-10.85126113891602,1.50741219520569,0.42997518181801,-55.01026916503906,-2.33619546890259,45.52607727050781
253,509963195,94.85674285888672,56.25041961669922,-21.19830131530762,-10.95755004882812,1.46267712116241,0.27152869105339,-54.84185409545898,-2.58018445968628,44.25123596191406
254,509971528,94.32012939453125,55.87384033203125,-21.28460884094238,-11.02936935424805,1.29684090614319,0.37329924106598,-56.11670303344727,-0.74740105867386,43.39284515380859
255,509979861,93.89682006835938,55.49923706054688,-21.31734085083008,-11.79386329650879,0.79487633705139,0.73336827754974,-47.87499237060547,2.38096666336060,42.84063720703125
256,509988194,93.42504882812500,55.30561828613281,-21.33871269226074,-12.02956104278564,1.93722939491272,1.16723906993866,-52.24228668212891,7.53269910812378,34.60806655883789
257,509996527,92.80996704101562,55.07191085815430,-21.44256973266602,-13.47592163085938,0.98025524616241,1.29807925224304,-61.35540008544922,1.85515820980072,40.35538101196289
258,510004860,92.35329437255859,54.80226898193359,-21.45174980163574,-12.42394161224365,1.01835262775421,1.63713085651398,-54.21404266357422,2.25015425682068,30.27217102050781
259,510013193,91.79055786132812,54.66940307617188,-21.52836608886719,-12.96698951721191,-0.39279225468636,0.95512974262238,-57.75418090820312,2.62359881401062,28.98599433898926
260,510021526,91.49307250976562,54.47135162353516,-21.43264198303223,-12.22400569915771,-0.12259086221457,1.13371837139130,-45.37072753906250,8.77733993530273,21.50782394409180
261,510029859,91.11606597900391,54.43159103393555,-21.37762069702148,-13.44678974151611,0.18659672141075,2.05736494064331,-48.41427612304688,11.16026496887207,18.55447006225586
262,510038192,90.78190612792969,54.26303100585938,-21.29622268676758,-13.43153285980225,-0.29139438271523,1.12700378894806,-48.35375976562500,7.48250055313110,18.08876609802246
263,510046525,90.47840881347656,54.23687362670898,-21.24082565307617,-13.47662353515625,-0.10962536185980,1.09728693962097,-39.62844085693359,11.07178497314453,18.00308609008789
264,510054858,90.37472534179688,54.11484146118164,-21.02983856201172,-13.99843788146973,-0.35148617625237,1.48148596286774,-33.28271865844727,16.39472007751465,12.51661682128906
265,510063191,90.21449279785156,54.13985443115234,-20.84273910522461,-15.16329097747803,0.23611645400524,1.31713807582855,-35.34526062011719,20.23100852966309,12.87231159210205
266,510071524,90.10768890380859,54.00493621826172,-20.65119171142578,-16.30080986022949,0.78565770387650,1.74106740951538,-31.73691749572754,15.01650238037109,14.16316509246826
267,510079857,90.04401397705078,54.04473114013672,-20.47784042358398,-17.09833908081055,-0.12429213523865,2.05430865287781,-22.47526741027832,19.28067016601562,12.23692893981934
268,510088190,90.08015441894531,53.97182846069336,-20.21350097656250,-16.78698158264160,2.52103781700134,2.77347707748413,-21.63724327087402,20.14958000183105,6.76549339294434
269,510096523,89.91559600830078,54.03997039794922,-20.09121322631836,-17.41646766662598,1.42775547504425,1.30967569351196,-29.63787841796875,15.84100055694580,9.91593360900879
270,510104856,89.98983764648438,54.01806640625000,-19.80437469482422,-15.23382949829102,1.62749636173248,0.74584817886353,-19.25838470458984,21.73130035400391,0.70606970787048
271,510113189,89.95175170898438,54.18235015869141,-19.58531188964844,-15.13193702697754,3.57351422309875,1.33042585849762,-24.05359840393066,22.56821632385254,-0.71103906631470
272,510121522,89.94718170166016,54.21016311645508,-19.32602310180664,-14.43697166442871,2.82101631164551,0.53088009357452,-26.09401321411133,19.73989677429199,-5.23114871978760
273,510129855,89.91871643066406,54.46881103515625,-19.15980720520020,-12.75285243988037,3.88077163696289,0.49143779277802,-17.96148109436035,18.69106483459473,-11.57533645629883
274,510138188,89.90430450439453,54.52581787109375,-18.99044609069824,-13.15427875518799,4.14152193069458,1.07139372825623,-18.58505821228027,13.36432361602783,-8.69987964630127
275,510146521,89.82904052734375,54.75903701782227,-18.99817466735840,-12.91538143157959,3.92728257179260,0.93017119169235,-6.72189378738403,6.46056413650513,-8.42721366882324
276,510154854,89.92070770263672,54.81965255737305,-18.89541435241699,-13.54731273651123,2.29349064826965,-0.49092963337898,0.61305117607117,8.69362545013428,-9.10779571533203
277,510163187,90.07152557373047,55.03563308715820,-18.89594650268555,-12.34002590179443,3.35735058784485,-2.18288326263428,19.57298278808594,6.84488153457642,-6.14618873596191
278,510171520,90.28224182128906,54.91808319091797,-18.87027359008789,-14.67341804504395,4.77755069732666,-0.38961315155029,22.45543479919434,3.39692330360413,12.28291606903076
279,510179853,90.45457458496094,54.93016815185547,-19.13036537170410,-14.92784690856934,2.15528655052185,-0.98280078172684,47.42713546752930,-11.15845870971680,18.49220085144043
280,510188186,90.82025146484375,54.74710845947266,-19.44342231750488,-12.82495975494385,3.38788318634033,-3.14595103263855,74.28718566894531,-19.78941154479980,20.41956520080566
281,510196519,91.19949340820312,54.69141006469727,-19.80077362060547,-11.51325225830078,5.01970815658569,-3.43741488456726,81.58149719238281,-17.79737854003906,27.14864730834961
282,510204852,91.66377258300781,54.45035171508789,-20.16020774841309,-10.13419246673584,5.59475708007812,-3.36821699142456,90.55307006835938,-22.65913391113281,27.78639221191406
283,510213185,92.04005432128906,54.38501739501953,-20.76094055175781,-8.54646110534668,5.94290018081665,-4.27771854400635,104.63579559326172,-34.79262542724609,28.75839233398438
284,510221518,92.50915527343750,54.11584854125977,-21.37714958190918,-7.56722402572632,6.99891471862793,-3.91101264953613,116.00012207031250,-40.25931930541992,32.26714324951172
285,510229851,92.94573211669922,53.96763229370117,-22.13581657409668,-7.67640972137451,7.91256141662598,-2.75540971755981,126.84181976318359,-45.83144760131836,38.40356063842773
286,510238184,93.40982055664062,53.64818572998047,-22.97385978698730,-7.66097068786621,6.50906324386597,-3.30022764205933,136.54281616210938,-55.53174209594727,39.86777114868164
287,510246517,93.86770629882812,53.43914031982422,-24.02686500549316,-7.69212770462036,6.45524501800537,-3.30799555778503,157.34979248046875,-66.78730773925781,45.41522979736328
288,510254850,94.45574951171875,53.08211135864258,-25.07698631286621,-7.74025011062622,6.42079639434814,-3.64027786254883,171.24490356445312,-70.42867279052734,46.52675628662109
289,510263183,95.08597564697266,52.86610412597656,-26.20099067687988,-8.19917392730713,6.16983032226562,-3.88830661773682,184.05718994140625,-72.58055877685547,45.39374542236328
290,510271516,95.80928802490234,52.55416870117188,-27.28717422485352,-8.61771869659424,6.40460300445557,-4.12634372711182,190.18554687500000,-73.41228485107422,43.10086822509766
291,510279849,96.49485778808594,52.40690231323242,-28.42453193664551,-8.60482215881348,6.21859455108643,-4.99892044067383,191.13655090332031,-75.03852081298828,36.56194305419922
292,510288182,97.23663330078125,52.25446319580078,-29.53977584838867,-9.07528209686279,6.12802839279175,-5.57937145233154,194.63432312011719,-77.36158752441406,26.28816223144531
293,510296515,97.92304229736328,52.26441955566406,-30.71811294555664,-9.29397106170654,7.39944887161255,-5.71074342727661,194.58074951171875,-80.93389129638672,17.88980102539062
294,510304848,98.60018157958984,52.30832290649414,-31.87481307983398,-8.97879886627197,7.11885690689087,-6.46489572525024,190.74348449707031,-83.13403320312500,5.34426784515381
295,510313181,99.22226715087891,52.49597549438477,-33.08629608154297,-9.08063602447510,7.51980972290039,-6.37950134277344,189.95802307128906,-86.80106353759766,-2.96070957183838
296,510321514,99.84452056884766,52.73054504394531,-34.27466583251953,-8.73470211029053,6.80357170104980,-7.33564329147339,187.65803527832031,-88.40496063232422,-15.05649280548096
297,510329847,100.47257232666016,53.06717300415039,-35.52836990356445,-8.72475051879883,6.94726800918579,-8.32560348510742,195.23718261718750,-92.83921813964844,-19.91109085083008
298,510338180,101.12902832031250,53.39860916137695,-36.79703140258789,-8.63642883300781,7.34237146377563,-9.34492397308350,200.41722106933594,-95.31655883789062,-23.62033081054688
299,510346513,101.78738403320312,53.80286407470703,-38.10909271240234,-8.65212345123291,6.35099411010742,-10.30347156524658,205.36010742187500,-98.29647064208984,-26.46913146972656
300,510354846,102.46136474609375,54.15003967285156,-39.50448226928711,-8.43371391296387,5.90608978271484,-11.17809486389160,215.98078918457031,-103.38682556152344,-21.67950820922852
301,510363179,103.20902252197266,54.51197052001953,-40.90361785888672,-8.70276927947998,5.77140808105469,-12.09557533264160,225.49896240234375,-102.83928680419922,-19.03927612304688
302,510371512,104.01058959960938,54.85787200927734,-42.31692123413086,-9.55329036712646,6.42642068862915,-12.15593910217285,234.25711059570312,-103.41258239746094,-18.89907264709473
303,510379845,104.80482482910156,55.23191070556641,-43.82206344604492,-10.15645027160645,6.57029628753662,-12.70413970947266,242.47947692871094,-109.64303588867188,-16.86119079589844
304,510388178,105.55342864990234,55.58897399902344,-45.44223785400391,-10.39564800262451,6.93577718734741,-12.68446254730225,249.56719970703125,-116.10245513916016,-14.07609272003174
305,510396511,106.19016265869141,55.96087265014648,-47.22943878173828,-11.15711212158203,7.17017889022827,-12.44716167449951,252.76683044433594,-126.89449310302734,-9.56818008422852
306,510404844,106.66149902343750,56.34528732299805,-49.26705169677734,-11.25101566314697,6.35774517059326,-12.97400951385498,259.31057739257812,-142.03915405273438,-7.35881853103638
307,510413177,107.04911804199219,56.77692413330078,-51.42698669433594,-10.54653835296631,6.62417173385620,-12.35033798217773,261.77200317382812,-150.64672851562500,-8.12679672241211
308,510421510,107.31570434570312,57.21574020385742,-53.76142120361328,-10.38378715515137,6.61287593841553,-12.36835575103760,266.59591674804688,-159.70202636718750,-6.84977865219116
309,510429843,107.45793151855469,57.69975280761719,-56.26156234741211,-9.60162067413330,6.32755994796753,-12.85196399688721,269.66085815429688,-169.72616577148438,-8.82645702362061
310,510438176,107.53665924072266,58.23566818237305,-58.87731170654297,-8.73219108581543,6.09394598007202,-11.85185909271240,274.52981567382812,-177.19100952148438,-11.45781517028809
311,510446509,107.53367614746094,58.79336166381836,-61.62607192993164,-7.72131633758545,5.18870067596436,-12.26131916046143,279.90573120117188,-183.69900512695312,-12.34028911590576
312,510454842,107.32698822021484,59.36793518066406,-64.56149291992188,-7.20072221755981,5.43390083312988,-10.40809154510498,277.06655883789062,-191.71218872070312,-13.18002319335938
313,510463175,106.81887817382812,59.93938446044922,-67.83513641357422,-6.55791425704956,5.31703090667725,-9.72460269927979,277.72399902343750,-208.21606445312500,-8.89487361907959
314,510471508,105.80659484863281,60.49767684936523,-71.75007629394531,-6.36111307144165,5.84236574172974,-8.17603111267090,285.32321166992188,-242.06124877929688,0.72465205192566
315,510479841,104.04271697998047,61.03002929687500,-76.52378845214844,-4.76035499572754,6.11632108688354,-8.48891353607178,287.28692626953125,-286.07653808593750,9.61079025268555
316,510488174,101.68416595458984,61.47381973266602,-81.80599212646484,-0.96993124485016,5.12614965438843,-9.52635192871094,272.42819213867188,-307.38330078125000,14.35380649566650
317,510496507,99.14765930175781,61.78108215332031,-87.33050537109375,1.65080106258392,4.31917333602905,-9.17862129211426,278.65808105468750,-314.80685424804688,19.08728408813477
318,510504840,97.05303955078125,61.96473312377930,-92.39293670654297,4.66085910797119,4.59309768676758,-6.85949277877808,283.59121704101562,-285.91741943359375,17.68697357177734
319,510513173,95.92580413818359,62.06073379516602,-96.41069793701172,7.01205539703369,4.50798559188843,-4.55144643783569,289.66195678710938,-225.44682312011719,13.03034591674805
320,510521506,95.44290924072266,62.10922622680664,-99.63404846191406,6.02356815338135,5.44842147827148,-4.48805904388428,283.52273559570312,-179.14846801757812,10.51098537445068
321,510529839,94.83390808105469,62.14169692993164,-102.94699096679688,2.06123614311218,6.12368965148926,-2.03980422019958,278.02493286132812,-183.84428405761719,11.13578987121582
322,510538172,94.19425201416016,62.21922683715820,-106.35120391845703,2.18589520454407,5.32635974884033,1.71840894222260,283.75320434570312,-190.04441833496094,4.45738601684570
323,510546505,93.85921478271484,62.38710403442383,-109.25358581542969,4.70505762100220,3.66205430030823,-0.72483682632446,267.48406982421875,-162.02047729492188,-10.18786430358887
324,510554838,93.66796112060547,62.49007797241211,-111.85894775390625,3.81040239334106,4.58899688720703,-2.69995236396790,253.88513183593750,-143.54104614257812,-4.47378444671631
325,510563171,93.53499603271484,62.47991561889648,-114.39358520507812,1.47590637207031,5.42584180831909,-1.39728152751923,253.46862792968750,-138.53927612304688,8.40911769866943
326,510571504,93.45035552978516,62.36780548095703,-116.81649780273438,-0.82723069190979,5.13315820693970,-0.37787002325058,246.89009094238281,-132.55029296875000,20.06734085083008
327,510579837,93.36804199218750,62.17874908447266,-119.21678924560547,-3.01700234413147,5.10691452026367,0.39293116331100,244.47673034667969,-131.37673950195312,28.95261573791504
328,510588170,93.25164794921875,61.91912841796875,-121.63400268554688,-4.15497922897339,5.36889028549194,0.26268321275711,241.93052673339844,-132.31336975097656,37.30429458618164
329,510596503,93.06089019775391,61.58322143554688,-124.09071350097656,-5.31437158584595,5.58865547180176,0.10765735805035,236.47221374511719,-135.47964477539062,46.28694152832031
330,510604836,92.86230468750000,61.18984985351562,-126.52127838134766,-6.39300537109375,5.11463212966919,0.04057417064905,231.61756896972656,-135.89746093750000,52.67493820190430
331,510613169,92.69895172119141,60.76602935791016,-128.87641906738281,-6.95229148864746,4.43995571136475,0.11215395480394,226.97749328613281,-133.25578308105469,55.74876785278320
332,510621502,92.68427276611328,60.31455230712891,-131.08238220214844,-7.45854520797729,3.79670643806458,0.07830869406462,228.39680480957031,-125.88261413574219,58.58100891113281
333,510629835,92.90878295898438,59.87012481689453,-133.03385925292969,-7.73582315444946,4.72820997238159,0.35661926865578,229.60726928710938,-112.40363311767578,57.32167434692383
334,510638168,93.26450347900391,59.44535064697266,-134.79945373535156,-8.59804248809814,4.79394531250000,0.33643019199371,225.00617980957031,-102.84188842773438,55.01053237915039
335,510646501,93.71590423583984,59.03187942504883,-136.44297790527344,-9.29812145233154,4.93954992294312,0.03421645238996,223.13665771484375,-96.31767272949219,54.02350997924805
336,510654834,94.11739349365234,58.64620590209961,-138.08210754394531,-10.38982963562012,5.06558799743652,0.26372611522675,216.16902160644531,-96.76268768310547,51.47890472412109
337,510663167,94.47457122802734,58.26274871826172,-139.76382446289062,-10.97284889221191,5.30437803268433,0.32832041382790,214.51705932617188,-100.21633911132812,52.15136337280273
338,510671500,94.80086517333984,57.88227462768555,-141.45062255859375,-11.32160377502441,5.65459060668945,0.10640901327133,210.46655273437500,-101.60726928710938,52.56429672241211
339,510679833,95.11025238037109,57.50474166870117,-143.13018798828125,-11.56498432159424,5.44069242477417,-0.13577455282211,207.02876281738281,-101.96216583251953,52.86930847167969
340,510688166,95.44719696044922,57.15544891357422,-144.70108032226562,-11.60265541076660,5.59501600265503,0.07667015492916,198.78828430175781,-95.84839630126953,49.45209503173828
341,510696499,95.68972778320312,56.81767272949219,-146.29777526855469,-12.47403240203857,5.00050497055054,0.76316648721695,189.44238281250000,-98.34819793701172,48.82757568359375
342,510704832,95.90652465820312,56.53040313720703,-147.84303283691406,-12.42985534667969,5.02412891387939,0.48581773042679,180.51078796386719,-96.38561248779297,43.05488204956055
343,510713165,95.95182037353516,56.29219818115234,-149.39561462402344,-12.53393554687500,4.79985809326172,0.58404237031937,160.23529052734375,-98.04002380371094,37.59415054321289
344,510721498,95.91714477539062,56.07652664184570,-150.92251586914062,-11.37870788574219,4.23046731948853,0.00508566386998,147.73948669433594,-97.12897491455078,34.63742828369141
345,510729831,95.84555053710938,55.86891937255859,-152.39691162109375,-10.73953056335449,4.71928644180298,0.17675173282623,137.70977783203125,-94.31248474121094,33.27982330322266
346,510738164,95.73714447021484,55.65729141235352,-153.85482788085938,-10.31702136993408,4.96685028076172,-0.01736922189593,131.24382019042969,-93.79855346679688,33.75538635253906
347,510746497,95.63718414306641,55.43485641479492,-155.23574829101562,-9.89011192321777,5.71514606475830,-0.20048281550407,124.28218841552734,-89.05925750732422,34.42461013793945
348,510754830,95.46423339843750,55.20046997070312,-156.56565856933594,-10.03296756744385,5.79678058624268,-0.09091804921627,110.15167236328125,-86.04589843750000,35.13230895996094
349,510763163,95.23981475830078,54.95028686523438,-157.93182373046875,-10.41747093200684,5.12564802169800,0.08654180169106,107.15270996093750,-89.02626800537109,36.99839019775391
350,510771496,95.06192016601562,54.71799850463867,-159.14839172363281,-10.55949401855469,5.25913476943970,-0.33540213108063,97.65344238281250,-79.63331604003906,33.88024902343750
351,510779829,94.87528228759766,54.51427078247070,-160.29328918457031,-10.23865127563477,4.12603664398193,-0.48624116182327,89.28125000000000,-75.52094268798828,29.82836532592773
352,510788162,94.75398254394531,54.33205032348633,-161.33248901367188,-10.29348373413086,4.27787065505981,-0.61361747980118,86.53833770751953,-68.84199523925781,26.23219299316406
353,510796495,94.62393951416016,54.17520141601562,-162.32392883300781,-10.35223197937012,3.73374199867249,-0.60779583454132,80.62168884277344,-66.11089324951172,22.79390144348145
354,510804828,94.51300048828125,54.03850555419922,-163.25537109375000,-10.21593475341797,3.18925023078918,-0.28278985619545,76.91247558593750,-62.39537811279297,20.17997169494629
355,510813161,94.38994598388672,53.92663574218750,-164.16004943847656,-10.44710445404053,2.45005130767822,0.22035785019398,72.73152160644531,-60.98718261718750,16.98632049560547
356,510821494,94.26995849609375,53.83715820312500,-165.03874206542969,-10.81124496459961,1.92502427101135,0.24223756790161,70.43933105468750,-59.54490661621094,13.74767494201660
357,510829827,94.22048187255859,53.80733871459961,-165.77108764648438,-9.82271289825439,1.26902937889099,-0.06625726073980,64.69589996337891,-49.83587646484375,6.11530685424805
358,510838160,94.14701843261719,53.78067398071289,-166.48439025878906,-10.18686294555664,1.83947622776031,0.04017718136311,59.91577911376953,-48.57707595825195,5.23053169250488
359,510846493,94.09361267089844,53.76847076416016,-167.18914794921875,-9.61158657073975,1.45923507213593,0.01759485341609,61.51201629638672,-48.10410690307617,3.81526041030884
360,510854826,94.11444854736328,53.77442550659180,-167.76431274414062,-9.42596817016602,2.28631138801575,-0.04432769492269,57.84078216552734,-39.11960220336914,0.55852085351944
361,510863159,94.06726074218750,53.77099990844727,-168.43075561523438,-9.89573001861572,1.87782490253448,0.07445136457682,58.55728912353516,-45.47290039062500,2.58200407028198
362,510871492,94.21835327148438,53.80590438842773,-168.88177490234375,-8.95625495910645,2.40043830871582,-0.40672954916954,61.46534347534180,-30.57628440856934,-3.51645112037659
363,510879825,94.20934295654297,53.82939910888672,-169.40765380859375,-9.76210212707520,2.63827824592590,-0.19121815264225,49.56080245971680,-35.71084213256836,-1.24057841300964
364,510888158,94.24820709228516,53.82048034667969,-169.99153137207031,-9.41981887817383,1.99083817005157,-0.07779370248318,60.88390350341797,-39.55369186401367,2.46412634849548
365,510896491,94.39999389648438,53.83346557617188,-170.38958740234375,-9.25014114379883,2.89276385307312,-0.02327147312462,56.49377441406250,-26.58278656005859,-0.56112009286880
366,510904824,94.32546234130859,53.80471420288086,-170.97557067871094,-10.15256500244141,2.24750232696533,0.22930020093918,47.47486877441406,-39.51494598388672,4.94584465026855
367,510913157,94.41231536865234,53.80294418334961,-171.42546081542969,-8.98887062072754,2.13925766944885,-0.27434492111206,53.70687484741211,-30.11143875122070,1.53140330314636
368,510921490,94.37613677978516,53.78645324707031,-171.92869567871094,-10.12660503387451,2.22927188873291,0.07928594946861,44.04364395141602,-33.80175018310547,3.04902434349060
369,510929823,94.39525604248047,53.79809188842773,-172.31993103027344,-8.86742687225342,1.28179419040680,-0.86280041933060,39.83600234985352,-26.14338684082031,-0.92499577999115
370,510938156,94.34967041015625,53.80433273315430,-172.74496459960938,-9.89862823486328,1.39291334152222,-0.57656466960907,35.42037582397461,-28.43452644348145,0.46909990906715
371,510946489,94.37586975097656,53.83698272705078,-173.09342956542969,-9.09313964843750,0.96725434064865,-0.97972285747528,36.62649536132812,-23.26164627075195,-3.07149767875671
372,510954822,94.32424926757812,53.83975982666016,-173.54321289062500,-10.33445739746094,1.50537478923798,-0.06133533269167,37.04125976562500,-30.17236518859863,0.42880877852440
373,510963155,94.34027099609375,53.86423873901367,-173.94163513183594,-9.55465221405029,1.74595761299133,-0.03086185455322,40.24549865722656,-26.69478797912598,-1.80220842361450
374,510971488,94.20944213867188,53.84549713134766,-174.44638061523438,-10.91622352600098,2.54821133613586,0.13928650319576,32.86914443969727,-33.85264587402344,3.24863386154175
375,510979821,94.07353973388672,53.83369445800781,-175.01788330078125,-10.36332702636719,1.89361715316772,0.57641518115997,38.80328750610352,-38.61152267456055,3.36748695373535
376,510988154,93.96699523925781,53.82462310791016,-175.48153686523438,-10.86458873748779,2.85798549652100,0.51238083839417,31.78087043762207,-31.07441329956055,1.72701728343964
377,510996487,93.71186828613281,53.79611968994141,-176.13107299804688,-11.36714363098145,2.03247070312500,0.50353252887726,32.05775451660156,-44.04109191894531,5.55794477462769
378,511004820,93.56153106689453,53.77480697631836,-176.69136047363281,-10.74356174468994,2.23934388160706,0.36016836762428,35.86093521118164,-37.87651443481445,3.41264414787292
379,511013153,93.30591583251953,53.72974014282227,-177.35929870605469,-11.39570045471191,2.05496072769165,0.11544363200665,33.74108886718750,-45.32286453247070,7.33409309387207
380,511021486,93.11837005615234,53.68468856811523,-177.99880981445312,-10.76831531524658,1.66792643070221,0.22783894836903,39.00177764892578,-43.44763565063477,6.28325510025024
381,511029819,92.89039611816406,53.64304733276367,-178.63423156738281,-11.36243057250977,2.06763434410095,0.22129495441914,33.86674499511719,-43.20265960693359,6.49860525131226
382,511038152,92.64916992187500,53.58759307861328,-179.30061340332031,-11.16180515289307,1.47959458827972,0.33555397391319,35.08589172363281,-45.45859527587891,7.27879190444946
383,511046485,92.40850830078125,53.53934860229492,-179.94284057617188,-11.71637248992920,1.51628339290619,0.52833598852158,32.92659378051758,-43.80784225463867,6.98609590530396
384,511054818,92.15677642822266,53.49266052246094,179.39859008789062,-11.61244869232178,0.87315893173218,0.05581748485565,32.98497009277344,-45.13180160522461,5.80581474304199
385,511063151,91.84964752197266,53.44302749633789,178.68159484863281,-12.37275505065918,0.74650788307190,0.12604495882988,32.11663818359375,-49.33082962036133,6.97982406616211
386,511071484,91.58827209472656,53.42211532592773,178.00898742675781,-11.76336765289307,0.19228973984718,0.05234765633941,33.11256408691406,-46.39236831665039,2.28594875335693
387,511079817,91.25376892089844,53.40359497070312,177.27494812011719,-12.83504199981689,0.70075297355652,0.43497884273529,30.42750358581543,-50.78290939331055,2.83248257637024
388,511088150,90.97769165039062,53.41330337524414,176.57116699218750,-11.98357105255127,-0.12973952293396,0.38114094734192,34.33457946777344,-48.76331710815430,-1.84844410419464
389,511096483,90.67137145996094,53.41652679443359,175.84875488281250,-12.86535835266113,1.32739186286926,1.06693220138550,32.70707321166992,-50.01959991455078,-0.26563325524330
390,511104816,90.34776306152344,53.40972900390625,175.08471679687500,-12.37321949005127,0.97563374042511,0.84989416599274,34.43689346313477,-53.04735183715820,-0.36591339111328
391,511113149,89.98381805419922,53.39771270751953,174.26106262207031,-13.35474967956543,1.61632788181305,1.81520736217499,35.58289718627930,-57.28063583374023,1.05175018310547
392,511121482,89.77331542968750,53.44757461547852,173.62068176269531,-10.98682022094727,0.46657714247704,0.38694763183594,36.10431289672852,-44.19137954711914,-7.75003147125244
393,511129815,89.50538635253906,53.47268295288086,172.89889526367188,-12.15000343322754,0.63995707035065,0.37193816900253,37.35362625122070,-49.88682937622070,-3.84946131706238
394,511138148,89.45513153076172,53.58272171020508,172.35853576660156,-10.93969631195068,-0.98924005031586,-0.37881129980087,45.76256179809570,-36.83770370483398,-15.22659587860107
395,511146481,89.33526611328125,53.67766952514648,171.75856018066406,-13.30658912658691,1.19207727909088,0.47620034217834,43.50768280029297,-40.91724777221680,-12.29017257690430
396,511154814,89.29652404785156,53.79336929321289,171.26025390625000,-12.36233139038086,0.92287933826447,-0.36158969998360,43.21561431884766,-33.61646270751953,-15.98070430755615
397,511163147,89.24349212646484,53.87806701660156,170.74961853027344,-13.73876190185547,2.94510674476624,-0.12376872450113,43.06002426147461,-34.39937973022461,-11.01839065551758
398,511171480,89.29589080810547,53.98785781860352,170.32029724121094,-12.51090908050537,1.76087594032288,-0.93418496847153,47.58149719238281,-28.57943534851074,-15.23660850524902
399,511179813,89.40776824951172,54.10010528564453,169.91400146484375,-13.62583637237549,3.21366071701050,0.01700051315129,52.86595535278320,-26.87019920349121,-14.15366458892822
400,511188146,89.50426483154297,54.23652648925781,169.54423522949219,-12.91869640350342,2.16479492187500,-0.34977838397026,47.20321655273438,-24.23972511291504,-18.29308319091797
401,511196479,89.56225585937500,54.37597274780273,169.11555480957031,-13.23924636840820,2.56727123260498,0.70697188377380,48.69088363647461,-28.26097106933594,-17.30767822265625
402,511204812,89.70841217041016,54.55414581298828,168.78343200683594,-12.33619022369385,1.98130631446838,0.38414862751961,49.61777114868164,-21.45128440856934,-23.20919418334961
403,511213145,89.81199645996094,54.73620986938477,168.42704772949219,-12.39039897918701,2.76441049575806,0.71525639295578,47.26075363159180,-23.02343177795410,-22.25592613220215
404,511221478,89.98715972900391,54.93264389038086,168.16134643554688,-11.03863811492920,2.26888632774353,-0.22135236859322,46.73066711425781,-16.74879837036133,-25.28520393371582
405,511229811,90.20093536376953,55.11534118652344,167.91142272949219,-11.14128589630127,3.17573976516724,-0.04266946762800,49.87661743164062,-15.64595031738281,-23.57229614257812
406,511238144,90.38333129882812,55.29470825195312,167.60635375976562,-11.07018184661865,2.50689363479614,0.37023401260376,51.93927764892578,-19.38111114501953,-21.71250152587891
407,511246477,90.72127532958984,55.48362731933594,167.45149230957031,-10.66618347167969,2.35040378570557,-0.33630064129829,55.50016021728516,-9.19199275970459,-24.24493789672852
408,511254810,90.98567199707031,55.63084030151367,167.20660400390625,-11.82257366180420,3.06118655204773,0.11986444145441,55.88897705078125,-15.21619701385498,-17.71800041198730
409,511263143,91.33790588378906,55.78839492797852,167.02206420898438,-11.13296222686768,2.35260081291199,-0.62761622667313,60.54087066650391,-11.22085475921631,-18.94987678527832
410,511271476,91.74782562255859,55.90500259399414,166.87640380859375,-11.91871070861816,3.53050255775452,-0.28684040904045,63.30353927612305,-8.61961936950684,-15.40995407104492
411,511279809,92.11914825439453,56.00917434692383,166.70692443847656,-11.71511173248291,2.99138975143433,-0.44828414916992,61.05795669555664,-10.22479248046875,-13.79022979736328
412,511288142,92.55538177490234,56.10998916625977,166.58702087402344,-11.66314506530762,3.35249662399292,-0.64017570018768,64.22064208984375,-6.86434745788574,-12.10790920257568
413,511296475,92.98888397216797,56.20270538330078,166.47290039062500,-11.67092227935791,3.03778195381165,-0.86854106187820,63.32176971435547,-6.51104688644409,-11.13307571411133
414,511304808,93.40006256103516,56.25877380371094,166.29829406738281,-11.88621330261230,3.23375821113586,-0.38349840044975,66.40338134765625,-10.44167232513428,-7.76005649566650
415,511313141,93.79752349853516,56.31426239013672,166.08337402343750,-11.79129028320312,3.05977773666382,-0.29943397641182,68.79565429687500,-13.13458824157715,-7.43278360366821
416,511321474,94.16086578369141,56.37669754028320,165.80673217773438,-11.79429817199707,2.85383439064026,-0.20571479201317,71.17868804931641,-17.24454498291016,-6.65326452255249
417,511329807,94.56249237060547,56.43787384033203,165.54814147949219,-11.33427047729492,2.72790861129761,-0.59170806407928,73.93704223632812,-16.02458953857422,-6.52742338180542
418,511338140,94.92772674560547,56.47950744628906,165.22718811035156,-11.42749786376953,2.89019966125488,-0.07797469198704,75.57257080078125,-20.06257438659668,-4.91220951080322
419,511346473,95.24900054931641,56.52259826660156,164.83110046386719,-11.53490543365479,3.06089091300964,0.22690415382385,77.83320617675781,-25.02401351928711,-4.51221704483032
420,511354806,95.55016326904297,56.60839843750000,164.41448974609375,-10.96049118041992,2.61063861846924,0.04657463729382,77.76581573486328,-26.74268913269043,-8.24105834960938
421,511363139,95.90275573730469,56.70339965820312,164.05516052246094,-10.85877037048340,3.14275979995728,0.00914544146508,78.21833801269531,-23.05426597595215,-9.62349033355713
422,511371472,96.20210266113281,56.80654144287109,163.63168334960938,-11.06079387664795,2.96047568321228,0.01672127842903,78.06419372558594,-27.45436477661133,-11.06666088104248
423,511379805,96.58718872070312,56.92861938476562,163.24139404296875,-10.62455081939697,2.79031133651733,-0.63815867900848,85.07688903808594,-25.51296615600586,-13.39945030212402
424,511388138,96.99172973632812,57.05142974853516,162.84762573242188,-11.10337638854980,3.21422266960144,-0.12376120686531,88.07210540771484,-25.63324356079102,-12.30718231201172
425,511396471,97.38745117187500,57.19026565551758,162.45054626464844,-10.83423233032227,2.84295082092285,-0.32256829738617,87.33520507812500,-26.04811859130859,-14.07183551788330
426,511404804,97.90164947509766,57.34014129638672,162.18212890625000,-10.52442646026611,3.01682639122009,-0.79408133029938,88.44110107421875,-18.10441589355469,-17.20767974853516
427,511413137,98.39840698242188,57.49104690551758,161.89108276367188,-10.73594188690186,3.43544816970825,-0.36761212348938,88.68350219726562,-19.63044929504395,-16.95625305175781
428,511421470,98.89961242675781,57.67172241210938,161.62036132812500,-10.03629779815674,3.24765992164612,-0.39077496528625,87.43485260009766,-18.79374885559082,-19.65441894531250
429,511429803,99.44288635253906,57.86843109130859,161.39552307128906,-9.53196430206299,3.59887242317200,0.04931979626417,87.87371826171875,-16.28730392456055,-21.90372657775879
430,511438136,99.99950408935547,58.07556152343750,161.18949890136719,-9.24301433563232,3.52591824531555,0.45563107728958,87.39745330810547,-15.57005119323730,-23.98628807067871
431,511446469,100.60687255859375,58.30819320678711,161.04670715332031,-8.99211025238037,3.49316716194153,0.28021436929703,87.08645629882812,-12.32477664947510,-27.54958152770996
432,511454802,101.19983673095703,58.55710983276367,160.89479064941406,-9.12479019165039,3.40409564971924,0.26510441303253,86.53247070312500,-13.31382751464844,-28.49149894714355
433,511463135,101.88362884521484,58.82902908325195,160.86152648925781,-8.70808124542236,3.50312376022339,-0.16473443806171,85.32202148437500,-6.86006641387939,-32.57828140258789
434,511471468,102.63278961181641,59.10662078857422,160.94671630859375,-8.60522651672363,3.81877136230469,-0.56422722339630,80.78325653076172,-0.37439298629761,-35.37307357788086
435,511479801,103.29953002929688,59.38419342041016,160.95686340332031,-9.00415229797363,3.74526548385620,-0.46642923355103,78.60175323486328,-5.31561565399170,-34.29981994628906
436,511488134,103.96175384521484,59.66560363769531,160.93290710449219,-8.72617340087891,3.41974949836731,-0.59421730041504,81.78689575195312,-7.66622734069824,-33.56285858154297
437,511496467,104.76576232910156,59.94531250000000,161.08689880371094,-8.02881145477295,2.93123698234558,-1.73268139362335,80.31735992431641,2.39602303504944,-35.95706176757812
438,511504800,105.62960052490234,60.20827484130859,161.32438659667969,-8.02681827545166,3.11285758018494,-1.47147285938263,78.60255432128906,6.99434518814087,-35.88305282592773
439,511513133,106.49137878417969,60.46486663818359,161.58195495605469,-7.76709318161011,3.37840485572815,-0.98958146572113,76.19704437255859,7.73098897933960,-35.52352142333984
440,511521466,107.39281463623047,60.71254730224609,161.89775085449219,-7.28821992874146,3.51935672760010,-0.98118692636490,74.96253967285156,10.83885765075684,-35.03832244873047
441,511529799,108.30717468261719,60.93697357177734,162.21705627441406,-7.11590576171875,3.78871202468872,-0.61959069967270,76.05293273925781,11.22038555145264,-32.58971786499023
442,511538132,109.22020721435547,61.13195419311523,162.52661132812500,-7.13509416580200,3.70684957504272,-0.77599990367889,76.70175170898438,11.05173778533936,-29.64820861816406
443,511546465,110.13329315185547,61.29304504394531,162.81483459472656,-7.33596611022949,3.39413690567017,-0.99844378232956,78.89737701416016,10.72346496582031,-25.51271629333496
444,511554798,111.07587432861328,61.42849731445312,163.13490295410156,-7.45201444625854,3.12621402740479,-1.28880512714386,79.17345428466797,13.21026515960693,-22.97422981262207
445,511563131,112.01574707031250,61.53271102905273,163.44856262207031,-7.85320425033569,3.34744334220886,-1.02387535572052,79.47937774658203,13.80700016021729,-19.55360412597656
446,511571464,112.95762634277344,61.62129974365234,163.78295898437500,-7.92548799514771,3.11225676536560,-1.61719787120819,77.38036346435547,15.12808704376221,-18.82922363281250
447,511579797,113.89902496337891,61.68982696533203,164.12321472167969,-8.10592842102051,3.42798686027527,-1.79232740402222,76.67038726806641,16.06523704528809,-16.95819282531738
448,511588130,114.74107360839844,61.74991226196289,164.35697937011719,-8.74592590332031,3.58185839653015,-1.15445959568024,76.08318328857422,10.83031940460205,-13.40152835845947
449,511596463,115.47215270996094,61.80397033691406,164.46994018554688,-9.32987594604492,3.12564158439636,-1.04804694652557,75.53133392333984,4.73297166824341,-9.97063541412354
450,511604796,116.16661834716797,61.84687805175781,164.52760314941406,-9.87063694000244,2.67614960670471,-1.19286060333252,76.87878417968750,2.24246096611023,-7.76283121109009
451,511613129,116.85113525390625,61.88602828979492,164.58416748046875,-10.20991992950439,2.48689031600952,-1.19336497783661,75.79260253906250,2.31223440170288,-7.33650541305542
452,511621462,117.52266693115234,61.92937469482422,164.64523315429688,-10.46619415283203,2.58532524108887,-0.83048057556152,73.86005401611328,2.37798571586609,-7.59823036193848
453,511629795,118.14743804931641,61.98500442504883,164.68138122558594,-10.53104591369629,2.82464861869812,-0.66839271783829,70.88197326660156,0.37573686242104,-8.24944686889648
454,511638128,118.73432922363281,62.05682373046875,164.71626281738281,-10.08956909179688,3.03651213645935,-0.99943268299103,66.36608123779297,-0.83491212129593,-10.22049236297607
455,511646461,119.29054260253906,62.14134979248047,164.75628662109375,-9.47784233093262,3.01490688323975,-1.54678142070770,62.23196411132812,-1.24325513839722,-11.35663509368896
456,511654794,119.83648681640625,62.22706604003906,164.78512573242188,-9.12533664703369,2.89383411407471,-1.78716921806335,62.09184265136719,-2.13017725944519,-11.45094871520996
457,511663127,120.35939788818359,62.31010818481445,164.78256225585938,-8.90565967559814,2.77656435966492,-1.99759507179260,62.77920532226562,-3.43425393104553,-9.95543098449707
458,511671460,120.88542938232422,62.38411331176758,164.80705261230469,-8.60281848907471,2.36711645126343,-2.24102878570557,60.15815353393555,-1.80679595470428,-10.04336261749268
459,511679793,121.47823333740234,62.44470596313477,164.91432189941406,-8.39574909210205,1.94639956951141,-2.26328897476196,59.45286941528320,3.02794504165649,-10.72613525390625
460,511688126,122.11886596679688,62.48981857299805,165.07557678222656,-8.58731365203857,1.85944139957428,-2.07194471359253,59.35541152954102,6.29064512252808,-11.02095603942871
461,511696459,122.73969268798828,62.53683853149414,165.22213745117188,-9.01374244689941,1.69168043136597,-1.68737196922302,58.60984802246094,5.50871658325195,-10.54337596893311
462,511704792,123.43547821044922,62.57059097290039,165.45878601074219,-8.93037223815918,1.61430752277374,-2.27138328552246,57.93238830566406,10.29613590240479,-12.24473094940186
463,511713125,124.11849975585938,62.58989334106445,165.68333435058594,-9.40952873229980,2.15563535690308,-1.96416330337524,57.72387695312500,10.71408271789551,-10.25501060485840
464,511721458,124.73646545410156,62.60692214965820,165.83357238769531,-9.77227592468262,2.29790091514587,-1.72232055664062,57.78470611572266,7.23191881179810,-8.08340358734131
465,511729791,125.34431457519531,62.61590957641602,165.98419189453125,-9.87923049926758,2.25149178504944,-2.09137868881226,56.64002227783203,7.85211706161499,-7.06707668304443
466,511738124,125.91290283203125,62.61406707763672,166.09933471679688,-10.08748149871826,2.35237717628479,-2.14973950386047,55.60179901123047,6.83394861221313,-5.22922468185425
467,511746457,126.42576599121094,62.61559677124023,166.17723083496094,-10.18261432647705,2.20445013046265,-2.10515618324280,52.93240737915039,5.05177974700928,-4.10936546325684
468,511754790,126.90197753906250,62.60445022583008,166.22496032714844,-10.12969684600830,1.93653070926666,-1.99656176567078,51.69672393798828,4.44874238967896,-2.20873379707336
469,511763123,127.36282348632812,62.59823226928711,166.26780700683594,-10.26798629760742,1.82039284706116,-1.88447272777557,50.43673706054688,4.02244186401367,-2.25360918045044
470,511771456,127.77389526367188,62.59591674804688,166.25788879394531,-10.21182155609131,1.62302827835083,-2.16976952552795,50.02158737182617,1.27384996414185,-1.15393662452698
471,511779789,128.12017822265625,62.60604095458984,166.16972351074219,-9.97804832458496,1.60733306407928,-1.82228302955627,50.63702011108398,-2.89547777175903,0.62273466587067
472,511788122,128.43498229980469,62.62589645385742,166.04360961914062,-9.58586025238037,1.82817947864532,-1.30731844902039,50.85052108764648,-5.40219497680664,0.73374706506729
473,511796455,128.72514343261719,62.66175460815430,165.90579223632812,-9.20350456237793,2.10569787025452,-1.32433164119720,49.21125030517578,-6.92857599258423,-0.02770185656846
474,511804788,129.02899169921875,62.69874572753906,165.77787780761719,-8.79377746582031,2.22372817993164,-1.55387306213379,49.73519515991211,-6.73234510421753,-0.74239176511765
475,511813121,129.34800720214844,62.71793365478516,165.64479064941406,-8.59764575958252,2.14971065521240,-1.56946671009064,52.15721130371094,-5.41943407058716,1.42515373229980
476,511821454,129.69697570800781,62.70630264282227,165.51174926757812,-8.69155120849609,1.98832643032074,-1.47132873535156,55.70296096801758,-3.21885943412781,4.02644014358521
477,511829787,130.04730224609375,62.67963027954102,165.36627197265625,-9.05372524261475,1.95444905757904,-1.47793626785278,57.25243759155273,-2.38565254211426,6.17476415634155
478,511838120,130.35574340820312,62.65523147583008,165.17602539062500,-9.16563224792480,1.68721854686737,-1.68156266212463,56.93120956420898,-4.58246374130249,7.29134321212769
479,511846453,130.64480590820312,62.63328552246094,164.96813964843750,-8.93279647827148,1.37806737422943,-2.10809016227722,56.54760360717773,-5.28706216812134,8.03049468994141
480,511854786,130.90180969238281,62.60240554809570,164.72222900390625,-8.99889850616455,1.25861155986786,-2.11001682281494,56.67906188964844,-6.32049798965454,9.95989418029785
481,511863119,131.09654235839844,62.57796096801758,164.40545654296875,-9.10438251495361,1.13519942760468,-1.76569998264313,56.77430725097656,-9.55020809173584,12.27087116241455
482,511871452,131.24324035644531,62.55249023437500,164.04032897949219,-9.01556777954102,0.82182037830353,-1.87373721599579,56.12705612182617,-11.64906978607178,13.87988471984863
483,511879785,131.38107299804688,62.53106689453125,163.64053344726562,-8.87446403503418,0.69290471076965,-2.07495117187500,58.80530548095703,-13.19566535949707,15.13025093078613
484,511888118,131.53506469726562,62.49795150756836,163.21060180664062,-8.72451019287109,0.73276382684708,-2.41381192207336,63.88494491577148,-13.67840099334717,17.03435325622559
485,511896451,131.71134948730469,62.45077133178711,162.75537109375000,-8.60536575317383,1.09284436702728,-2.26068615913391,69.28828430175781,-13.38697052001953,19.60888862609863
486,511904784,131.87300109863281,62.38280105590820,162.22824096679688,-8.67059803009033,1.56131958961487,-1.68824589252472,75.10302734375000,-14.86869907379150,23.89294052124023
487,511913117,131.99153137207031,62.31990432739258,161.62222290039062,-8.77371025085449,1.96349799633026,-0.66807538270950,78.32188415527344,-18.33128929138184,26.77268218994141
488,511921450,132.06948852539062,62.25549316406250,161.00218200683594,-8.54507732391357,2.02639913558960,-0.62372893095016,74.86208343505859,-18.99087715148926,27.19820022583008
489,511929783,132.13769531250000,62.18806838989258,160.39294433593750,-8.36756896972656,2.13336253166199,-0.53812062740326,72.56279754638672,-18.10100173950195,27.45031356811523
490,511938116,132.22129821777344,62.09490203857422,159.87124633789062,-8.18832206726074,1.80875372886658,-1.30844044685364,65.01631927490234,-12.63969421386719,26.21871757507324
491,511946449,132.30778503417969,62.00879669189453,159.31115722656250,-8.50311565399170,1.97080111503601,-0.88082140684128,69.43813323974609,-14.59038925170898,27.41917610168457
492,511954782,132.40411376953125,61.92064285278320,158.85438537597656,-8.26167488098145,1.22158980369568,-2.24053740501404,59.57452774047852,-10.37824821472168,23.46387863159180
493,511963115,132.50382995605469,61.82847213745117,158.36613464355469,-8.07805538177490,1.60177969932556,-2.84543371200562,63.35476684570312,-11.14509391784668,25.40384101867676
494,511971448,132.58889770507812,61.74099731445312,157.77323913574219,-8.39260768890381,1.54384160041809,-1.79947769641876,72.53760528564453,-16.15238761901855,28.76730155944824
495,511979781,132.70848083496094,61.63885116577148,157.26058959960938,-7.91188526153564,0.97666758298874,-2.74106931686401,68.14679718017578,-11.62227249145508,27.07176399230957
496,511988114,132.80445861816406,61.50597763061523,156.59159851074219,-8.74788093566895,1.84271144866943,-1.84916567802429,81.79898834228516,-15.45695877075195,36.23446655273438
497,511996447,132.83395385742188,61.39647674560547,155.84390258789062,-9.57364749908447,1.18444454669952,-0.11313018947840,82.03447723388672,-20.74718666076660,37.36732864379883
498,512004780,132.85311889648438,61.30310821533203,155.16500854492188,-8.68694114685059,0.02445344626904,-2.38141679763794,73.42963409423828,-19.48616027832031,33.06784439086914
499,512013113,133.03210449218750,61.16203689575195,154.62524414062500,-8.48120594024658,0.75442194938660,-3.02905845642090,77.94903564453125,-9.50310707092285,32.23087310791016
500,512021446,133.20265197753906,61.01289367675781,154.06877136230469,-9.20300960540771,1.11425840854645,-2.68653202056885,78.55565643310547,-9.79762363433838,33.42187500000000
501,512029779,133.29933166503906,60.86816787719727,153.40715026855469,-9.57531261444092,1.19777846336365,-3.31585884094238,80.67070770263672,-14.39849185943604,37.68310928344727
502,512038112,133.42207336425781,60.70919418334961,152.70030212402344,-9.89872455596924,1.26215243339539,-2.90666198730469,88.40216827392578,-15.46748065948486,40.58169555664062
503,512046445,133.52215576171875,60.57297897338867,151.93721008300781,-9.83306503295898,1.30021059513092,-2.62537097930908,91.47682952880859,-19.54623413085938,41.36731719970703
504,512054778,133.61036682128906,60.44673156738281,151.14567565917969,-9.37364101409912,1.07665312290192,-3.15061974525452,92.90032196044922,-21.90773963928223,41.49155426025391
505,512063111,133.73225402832031,60.30889129638672,150.33676147460938,-9.24497127532959,1.19891393184662,-2.91071772575378,98.64614868164062,-21.74977493286133,43.38569259643555
506,512071444,133.85910034179688,60.16905593872070,149.49545288085938,-9.40466880798340,1.03923857212067,-2.45958471298218,102.52151489257812,-22.76208114624023,45.41688919067383
507,512079777,134.00981140136719,60.01950073242188,148.66461181640625,-9.22722244262695,0.92764991521835,-2.21652555465698,104.15875244140625,-21.54265975952148,46.05060958862305
508,512088110,134.22749328613281,59.84005355834961,147.91651916503906,-9.21775054931641,1.25212562084198,-2.24436545372009,103.44653320312500,-15.77005672454834,45.06086730957031
509,512096443,134.46842956542969,59.66622543334961,147.20326232910156,-9.54765701293945,1.41756963729858,-2.11927342414856,102.48455047607422,-14.72001075744629,43.34420013427734
510,512104776,134.70780944824219,59.50986862182617,146.49041748046875,-9.43246936798096,1.55257308483124,-2.25809025764465,102.14125823974609,-15.84184741973877,42.39245605468750
511,512113109,134.94175720214844,59.36756896972656,145.74742126464844,-9.76729393005371,1.95902812480927,-2.18584108352661,104.50169372558594,-18.28504753112793,42.71865844726562
512,512121442,135.17436218261719,59.26031875610352,144.99085998535156,-9.41945362091064,1.31169784069061,-2.94341421127319,105.62294769287109,-22.09196281433105,40.17243194580078
513,512129775,135.42422485351562,59.15784072875977,144.19563293457031,-8.99993038177490,1.90307486057281,-3.22090339660645,111.59610748291016,-24.09110260009766,41.66234588623047
514,512138108,135.69157409667969,59.02342987060547,143.40321350097656,-8.56302738189697,2.36346817016602,-3.18745398521423,113.30105590820312,-20.82843017578125,44.80158996582031
515,512146441,135.93963623046875,58.85510635375977,142.55038452148438,-9.22498416900635,2.13959360122681,-2.49608421325684,117.08126068115234,-20.46483039855957,50.58121871948242
516,512154774,136.20091247558594,58.68852233886719,141.68547058105469,-9.36313533782959,1.64489674568176,-2.29311013221741,119.74057006835938,-21.40887260437012,50.90925216674805
517,512163107,136.48754882812500,58.51035308837891,140.83212280273438,-9.26433849334717,1.20575678348541,-2.71129751205444,121.43883514404297,-19.83204269409180,51.64942550659180
518,512171440,136.80242919921875,58.31342315673828,139.95755004882812,-9.71601581573486,1.17815792560577,-2.49843883514404,126.81825256347656,-18.68094635009766,54.81437683105469
519,512179773,137.10044860839844,58.12677383422852,139.03115844726562,-10.04021835327148,1.27103388309479,-2.03954577445984,129.89994812011719,-21.71008300781250,56.71122360229492
520,512188106,137.36640930175781,57.96434783935547,138.03976440429688,-10.21402835845947,1.37947130203247,-2.15044379234314,132.49089050292969,-26.91701316833496,57.74526977539062
521,512196439,137.62098693847656,57.80733489990234,137.02258300781250,-10.15676879882812,1.95603859424591,-2.11222267150879,133.57015991210938,-28.42614364624023,58.85515213012695
522,512204772,137.83078002929688,57.67908477783203,135.95088195800781,-10.14816570281982,2.28586673736572,-2.39990282058716,133.57006835937500,-32.85831832885742,59.77194976806641
523,512213105,137.95661926269531,57.58322906494141,134.74340820312500,-9.79849910736084,2.21170783042908,-3.06690692901611,137.13584899902344,-41.53703308105469,63.90629196166992
524,512221438,138.05165100097656,57.49355697631836,133.47103881835938,-9.53699970245361,2.19333410263062,-3.19645047187805,139.86962890625000,-45.30812835693359,66.39237213134766
525,512229771,138.16760253906250,57.40007781982422,132.21902465820312,-9.26546669006348,2.11457633972168,-3.16779255867004,140.18698120117188,-44.10330200195312,65.95705413818359
526,512238104,138.29675292968750,57.31452941894531,130.96279907226562,-9.46797847747803,1.78751969337463,-3.44684219360352,142.08819580078125,-44.54069519042969,66.10053253173828
527,512246437,138.41717529296875,57.23658370971680,129.68643188476562,-8.85606479644775,2.11349534988403,-3.62709927558899,142.96046447753906,-46.06538772583008,66.70991516113281
528,512254770,138.54289245605469,57.14292907714844,128.40979003906250,-9.06577014923096,1.83083450794220,-3.62816500663757,143.47940063476562,-45.09041595458984,67.88806152343750
529,512263103,138.71351623535156,57.03968811035156,127.13562774658203,-8.94109153747559,1.59114766120911,-3.80993127822876,148.47663879394531,-44.08071899414062,68.81597137451172
530,512271436,138.88961791992188,56.88523483276367,125.82353210449219,-9.38857555389404,2.38630890846252,-3.03493499755859,152.76487731933594,-40.60768890380859,75.37899017333984
531,512279769,139.03782653808594,56.75366210937500,124.44376373291016,-10.18879508972168,2.14723682403564,-2.97392630577087,156.01066589355469,-45.59294509887695,77.31140136718750
532,512288102,139.08784484863281,56.63409805297852,122.90854644775391,-10.57773590087891,3.12444543838501,-2.49001002311707,159.60632324218750,-53.92437744140625,84.10597991943359
533,512296435,139.02275085449219,56.57663726806641,121.26839447021484,-10.51140403747559,2.78643202781677,-2.53088378906250,156.14840698242188,-64.25836944580078,84.63152313232422
534,512304768,138.98101806640625,56.53924560546875,119.63196563720703,-9.23228740692139,2.04486823081970,-3.42466521263123,158.55874633789062,-65.60498809814453,83.20551300048828
535,512313101,138.93717956542969,56.46836471557617,117.96959686279297,-9.74266719818115,2.68743395805359,-3.25370287895203,160.74555969238281,-63.82456588745117,87.17665100097656
536,512321434,138.90258789062500,56.39353942871094,116.28790283203125,-9.94423484802246,2.15649461746216,-3.50224447250366,163.63124084472656,-65.03252410888672,88.29623413085938
537,512329767,138.89694213867188,56.30869293212891,114.59959411621094,-10.15000534057617,2.50737237930298,-3.13949823379517,167.61013793945312,-64.60058593750000,89.57574462890625
538,512338100,138.92610168457031,56.22169113159180,112.95630645751953,-10.49114990234375,2.38078665733337,-3.09655928611755,167.22195434570312,-62.07328033447266,87.95711517333984
539,512346433,139.02944946289062,56.12623214721680,111.37667846679688,-10.37797546386719,2.22955632209778,-3.70590734481812,169.51127624511719,-58.52486038208008,85.64524841308594
540,512354766,139.21255493164062,56.00885009765625,109.86820983886719,-10.43165683746338,2.44875621795654,-4.28818988800049,171.79840087890625,-53.96002197265625,83.90332031250000
541,512363099,139.44676208496094,55.88224792480469,108.37998199462891,-11.05482578277588,2.84558558464050,-4.15059900283813,175.70208740234375,-52.12855911254883,84.03752136230469
542,512371432,139.66624450683594,55.76538085937500,106.88784027099609,-12.32017421722412,3.16421532630920,-3.93465185165405,174.16104125976562,-52.48315811157227,84.15244293212891
543,512379765,139.92678833007812,55.67189407348633,105.45627593994141,-11.99923896789551,3.01578974723816,-4.26030254364014,172.92259216308594,-51.79870986938477,79.66658782958984
544,512388098,140.26281738281250,55.55769348144531,104.11680603027344,-12.03862667083740,3.27361989021301,-4.63131904602051,172.60488891601562,-46.20130920410156,76.71172332763672
545,512396431,140.62879943847656,55.44094085693359,102.79148101806641,-12.74764442443848,3.71396708488464,-5.07040262222290,174.62303161621094,-45.03786849975586,76.66423797607422
546,512404764,140.99272155761719,55.35699081420898,101.43294525146484,-13.60586929321289,3.44985198974609,-5.91972827911377,177.50292968750000,-48.53787612915039,76.57173156738281
547,512413097,141.41366577148438,55.26926422119141,100.08762359619141,-13.91791248321533,3.65274167060852,-6.12064647674561,182.94229125976562,-47.21934890747070,76.67984008789062
548,512421430,141.85380554199219,55.21059799194336,98.72018432617188,-15.16923427581787,2.89477658271790,-6.21914243698120,187.26185607910156,-51.02801132202148,76.00892639160156
549,512429763,142.33293151855469,55.16598892211914,97.30123138427734,-15.46887111663818,2.32447528839111,-7.01209211349487,196.93063354492188,-53.97532653808594,78.27082061767578
550,512438096,142.82334899902344,55.10832977294922,95.83603668212891,-16.18609046936035,3.16198897361755,-7.53254222869873,202.81660461425781,-53.43018722534180,82.48864746093750
551,512446429,143.30651855468750,55.13547897338867,94.28913879394531,-16.68613624572754,2.20607280731201,-7.93355751037598,209.91183471679688,-64.21323394775391,81.36511230468750
552,512454762,143.82608032226562,55.15727615356445,92.64016723632812,-16.71411514282227,2.36382412910461,-7.43326139450073,224.36262512207031,-67.74227905273438,87.71329498291016
553,512463095,144.37400817871094,55.28558731079102,90.88365173339844,-16.52940177917480,1.38922715187073,-8.71396923065186,238.49649047851562,-80.76850891113281,86.84510803222656
554,512471428,144.89872741699219,55.40284347534180,88.91943359375000,-17.35393714904785,3.84412169456482,-8.04642295837402,256.48916625976562,-87.52933502197266,99.44609069824219
555,512479761,145.34001159667969,55.67296218872070,86.75518035888672,-17.38012886047363,2.60004067420959,-7.85324811935425,266.67309570312500,-108.40886688232422,100.49412536621094
556,512488094,145.86582946777344,56.02392959594727,84.55428314208984,-15.68022441864014,2.54630112648010,-8.06921482086182,281.30059814453125,-116.98818969726562,96.83736419677734
557,512496427,146.42930603027344,56.45160675048828,82.35201263427734,-15.64389228820801,2.11439466476440,-7.34555721282959,286.90325927734375,-122.19036102294922,91.84609222412109
558,512504760,147.06672668457031,56.91662216186523,80.18928527832031,-14.76583099365234,1.91310501098633,-7.81309509277344,293.00607299804688,-123.30731964111328,86.89957427978516
559,512513093,147.69410705566406,57.43035507202148,78.02197265625000,-14.36818695068359,1.83274686336517,-8.12994289398193,293.40136718750000,-125.66534423828125,83.96275329589844
560,512521426,148.38801574707031,57.99512481689453,75.93011474609375,-12.20616245269775,0.54538327455521,-9.01369762420654,295.11557006835938,-126.95454406738281,76.17800903320312
561,512529759,149.19786071777344,58.57355117797852,73.95391845703125,-10.02078151702881,0.38316226005554,-9.59447669982910,298.44073486328125,-121.71591186523438,69.08249664306641
562,512538092,150.04719543457031,59.17192459106445,72.05893707275391,-8.30294799804688,-0.23044842481613,-9.84964466094971,296.21408081054688,-119.87313842773438,63.39007186889648
563,512546425,150.97457885742188,59.77448272705078,70.29535675048828,-5.72185707092285,-0.50016373395920,-10.62272834777832,293.11160278320312,-113.70652008056641,56.39390563964844
564,512554758,151.89518737792969,60.30834579467773,68.61265563964844,-3.51691222190857,0.34156346321106,-10.75718307495117,285.05535888671875,-102.96434783935547,56.21345138549805
565,512563091,152.73780822753906,60.77023696899414,66.90355682373047,-1.60492336750031,1.56113529205322,-10.56570243835449,279.21768188476562,-93.94229125976562,61.98522567749023
566,512571424,153.49244689941406,61.10236740112305,65.13552093505859,0.50266247987747,3.17721033096313,-10.00300312042236,275.64001464843750,-80.63342285156250,72.18761444091797
567,512579757,154.08198547363281,61.35816574096680,63.24470520019531,1.17550647258759,4.90645074844360,-8.04443073272705,269.19961547851562,-73.95585632324219,82.78737640380859
568,512588090,154.58674621582031,61.63729476928711,61.29930877685547,2.20029115676880,5.08808851242065,-7.05705785751343,265.36138916015625,-76.91393280029297,84.18593597412109
569,512596423,155.12167358398438,61.91679763793945,59.44421768188477,4.53106307983398,6.27043437957764,-6.17587471008301,259.95602416992188,-73.43090057373047,79.32677459716797
570,512604756,155.59443664550781,62.14388275146484,57.59970855712891,4.63658189773560,7.52111148834229,-4.69385814666748,251.85484313964844,-66.52877044677734,81.27655792236328
571,512613089,155.88562011718750,62.35474395751953,55.67792892456055,3.92185378074646,8.42786693572998,-3.54936051368713,238.72076416015625,-65.67021942138672,85.66207885742188
572,512621422,155.94386291503906,62.57691574096680,53.62081909179688,3.02119827270508,8.70379924774170,-2.86224651336670,225.51962280273438,-69.38520812988281,91.58272552490234
573,512629755,155.76551818847656,62.80458068847656,51.46178054809570,1.98416423797607,8.36821651458740,-1.98852074146271,208.59033203125000,-72.14648437500000,95.31446838378906
574,512638088,155.38740539550781,63.06025314331055,49.21109008789062,0.50497686862946,7.13703060150146,-1.06524753570557,194.76478576660156,-77.22827148437500,97.49642181396484
575,512646421,154.80973815917969,63.39802932739258,46.81338119506836,-1.07455384731293,5.83970403671265,-0.39724558591843,187.38790893554688,-89.98265838623047,98.37536621093750
576,512654754,154.02314758300781,63.86014556884766,44.24065017700195,-2.15121388435364,3.84140253067017,0.03884500265121,181.85015869140625,-107.70085144042969,98.02056884765625
577,512663087,153.04708862304688,64.40587615966797,41.50276184082031,-2.17629337310791,2.22298097610474,-0.11343722045422,178.35452270507812,-121.16676330566406,96.96136474609375
578,512671420,151.91064453125000,64.96160888671875,38.62014007568359,-1.84134316444397,1.13144969940186,-0.36399385333061,175.96371459960938,-125.95322418212891,98.64810180664062
579,512679753,150.74923706054688,65.49791717529297,35.71561050415039,-1.85467684268951,-0.88152676820755,-0.77197438478470,176.95045471191406,-125.20104217529297,95.07257080078125
580,512688086,149.76493835449219,66.01935577392578,32.94393920898438,-0.83106505870819,-1.32686996459961,-1.44782257080078,184.79695129394531,-120.54624176025391,85.80805206298828
581,512696419,148.99923706054688,66.51710510253906,30.39553451538086,-0.33058738708496,-0.95425552129745,-1.57127439975739,187.86042785644531,-112.79745483398438,73.35396575927734
582,512704752,148.40025329589844,66.99478912353516,27.98162651062012,0.11065980792046,-1.00046157836914,-2.24845027923584,193.91577148437500,-106.84297180175781,66.18210601806641
583,512713085,147.93431091308594,67.44353485107422,25.54204559326172,-0.53235870599747,0.75315612554550,-3.85795974731445,213.74897766113281,-104.30970001220703,65.79636383056641
584,512721418,147.50869750976562,67.81430053710938,22.96008491516113,-2.62143993377686,2.94640779495239,-5.12856245040894,235.08169555664062,-99.06435394287109,74.22505187988281
585,512729751,147.03634643554688,68.11907958984375,20.23521041870117,-4.61561632156372,5.52747011184692,-5.60842132568359,246.18370056152344,-95.97131347656250,81.32694244384766
586,512738084,146.57357788085938,68.31415557861328,17.54087448120117,-6.51711750030518,8.62188434600830,-4.95044994354248,244.33941650390625,-83.75184631347656,85.87062835693359
587,512746417,145.95048522949219,68.43438720703125,14.87657260894775,-9.68016147613525,10.93465614318848,-3.16116976737976,222.22337341308594,-76.42693328857422,87.80373382568359
588,512754750,145.07843017578125,68.56874084472656,12.25372886657715,-11.23654556274414,11.86648368835449,-2.19362401962280,187.83161926269531,-77.07577514648438,84.22461700439453
589,512763083,144.01339721679688,68.74531555175781,9.65464687347412,-11.36906528472900,11.04369544982910,-2.37988972663879,162.45451354980469,-82.08747863769531,77.83316040039062
590,512771416,142.92753601074219,68.95845031738281,7.15355920791626,-10.60884189605713,10.09299945831299,-2.85934042930603,149.25166320800781,-83.47544097900391,70.06729888916016
591,512779749,141.75173950195312,69.19277954101562,4.69811773300171,-11.15464305877686,9.10436248779297,-2.32118773460388,133.90188598632812,-85.54843139648438,63.64410018920898
592,512788082,140.48570251464844,69.48274993896484,2.18130493164062,-11.95188903808594,7.75113344192505,-2.61472654342651,130.30230712890625,-92.45282745361328,59.39781951904297
593,512796415,139.19729614257812,69.79845428466797,-0.28287142515182,-12.65855503082275,7.59064006805420,-1.53273391723633,122.34146118164062,-94.28369903564453,51.60024642944336
594,512804748,137.80819702148438,70.14216613769531,-2.65948271751404,-12.11156749725342,6.45911693572998,-1.66069483757019,100.88669586181641,-94.08562469482422,44.11320495605469
595,512813081,136.48518371582031,70.46443176269531,-4.92076635360718,-11.30245113372803,5.51512670516968,-2.65034961700439,96.41295623779297,-89.51090240478516,38.08431625366211
596,512821414,135.32272338867188,70.78287506103516,-6.98902702331543,-10.90336513519287,4.80505514144897,-3.53191924095154,94.26734161376953,-83.22056579589844,30.82307243347168
597,512829747,134.19444274902344,71.07358551025391,-9.03879070281982,-10.39816188812256,3.80580902099609,-4.58598804473877,96.75653839111328,-80.62270355224609,29.13158416748047
598,512838080,133.23820495605469,71.31465148925781,-10.96445369720459,-10.08687019348145,3.23617553710938,-5.17051553726196,103.62685394287109,-72.30854797363281,28.84988212585449
599,512846413,132.41761779785156,71.48545074462891,-12.76538085937500,-10.37419509887695,3.05943512916565,-5.10608053207397,106.02008819580078,-63.55563354492188,29.15052795410156
600,512854746,131.63780212402344,71.62042999267578,-14.53526115417480,-10.94648075103760,3.38516712188721,-4.42207431793213,107.53071594238281,-59.24189758300781,31.24054718017578
601,512863079,130.82827758789062,71.72161102294922,-16.33151245117188,-11.62075424194336,3.97184610366821,-3.59028601646423,107.10621643066406,-58.13331985473633,32.88461303710938
602,512871412,129.93391418457031,71.81175231933594,-18.19250297546387,-11.52924442291260,4.75201034545898,-2.84238433837891,104.41426849365234,-58.71096801757812,35.30634307861328
603,512879745,128.94003295898438,71.87831878662109,-20.11872863769531,-10.91068935394287,5.10566997528076,-2.74355340003967,100.00567626953125,-59.17708587646484,37.86011886596680
604,512888078,127.86595153808594,71.90504455566406,-22.14783859252930,-10.10495185852051,5.71138572692871,-2.55848598480225,102.13233947753906,-60.49450302124023,41.84370422363281
605,512896411,126.75521087646484,71.88947296142578,-24.22534942626953,-9.30089569091797,6.14343786239624,-2.27493977546692,103.25643920898438,-59.70043182373047,45.73567581176758
606,512904744,125.63821411132812,71.83035278320312,-26.30784606933594,-8.39779949188232,6.35611534118652,-2.34520506858826,103.07009887695312,-57.07675933837891,49.94894790649414
607,512913077,124.60658264160156,71.71477508544922,-28.32699012756348,-8.10885429382324,6.50143337249756,-2.54650187492371,105.97906494140625,-52.48769760131836,53.22323608398438
608,512921410,123.57344818115234,71.53293609619141,-30.35162544250488,-8.39342403411865,6.54898881912231,-2.50064468383789,106.13111114501953,-50.46426773071289,58.24733352661133
609,512929743,122.42950439453125,71.31594085693359,-32.46628570556641,-8.80519294738770,6.09136486053467,-2.68131446838379,102.77541351318359,-52.89945220947266,63.02841186523438
610,512938076,121.20080566406250,71.10606384277344,-34.66958999633789,-9.04054069519043,5.47489881515503,-3.04356741905212,102.50112152099609,-57.56568145751953,64.57070159912109
611,512946409,119.96128845214844,70.89642333984375,-36.86399078369141,-8.94120502471924,5.10666036605835,-2.67544102668762,99.87931060791016,-59.48249435424805,63.54457855224609
612,512954742,118.80433654785156,70.68515777587891,-38.96250915527344,-8.96607017517090,4.78267955780029,-2.70512366294861,98.40422821044922,-59.11278915405273,59.86627960205078
613,512963075,117.62797546386719,70.48902893066406,-41.06435775756836,-9.36247253417969,4.67116832733154,-2.44436645507812,96.17665100097656,-62.13393783569336,57.48070144653320
614,512971408,116.40765380859375,70.31457519531250,-43.24966430664062,-9.37665843963623,3.86967110633850,-3.17349696159363,100.24674987792969,-67.32950592041016,56.88330078125000
615,512979741,115.17689514160156,70.12501525878906,-45.53607940673828,-9.43307876586914,3.75985646247864,-3.04507493972778,110.12728881835938,-72.18209075927734,59.15441894531250
616,512988074,114.08888244628906,69.90730285644531,-47.69718933105469,-9.31129264831543,3.40576910972595,-2.85761833190918,112.52167510986328,-69.13752746582031,57.80812454223633
617,512996407,113.26889801025391,69.69029235839844,-49.64392471313477,-8.97288894653320,3.28446936607361,-2.97589445114136,120.47132873535156,-61.90037155151367,54.51927566528320
618,513004740,112.78600311279297,69.44749450683594,-50.51127624511719,-8.68259334564209,3.89053750038147,-2.16807961463928,124.05794525146484,-51.49387359619141,51.34053421020508
619,513013073,112.52801513671875,69.20412445068359,-51.91234207153320,-8.54057312011719,4.26939630508423,-2.08421325683594,125.97497558593750,-42.00936126708984,48.09132385253906
620,513021406,112.39707183837891,68.94779205322266,-53.21330261230469,-8.70652294158936,5.12376689910889,-1.71053135395050,129.42788696289062,-39.35838699340820,46.91931915283203
621,513029739,112.32712554931641,68.69251251220703,-54.46505737304688,-8.68859767913818,5.77838659286499,-1.86457276344299,131.00172424316406,-38.15837860107422,46.15924453735352
622,513038072,112.21607208251953,68.45334625244141,-55.74240875244141,-8.91540527343750,6.56635570526123,-1.54337108135223,129.01913452148438,-39.43605804443359,46.06095504760742
623,513046405,112.03030395507812,68.22203826904297,-57.03629302978516,-8.93116569519043,6.87142372131348,-1.85479593276978,121.66804504394531,-41.13679885864258,45.57875061035156
624,513054738,111.82999420166016,67.99954986572266,-58.33710479736328,-9.05694103240967,6.96467876434326,-2.32946753501892,120.04886627197266,-43.67847442626953,43.66511917114258
625,513063071,111.63035583496094,67.79019927978516,-59.60079193115234,-9.08713626861572,6.90116500854492,-2.70627188682556,115.79099273681641,-43.40164184570312,41.57302474975586
626,513071404,111.41179656982422,67.61510467529297,-60.83591461181641,-9.13470745086670,6.62060260772705,-2.86437916755676,110.55584716796875,-43.10194778442383,38.45096588134766
627,513079737,111.15274810791016,67.46496582031250,-62.05427551269531,-9.34317111968994,6.54514074325562,-2.69715118408203,103.68868255615234,-44.00195693969727,35.34125518798828
628,513088070,110.79543304443359,67.33389282226562,-63.29842376708984,-9.57487201690674,6.27604770660400,-2.31771993637085,94.11640930175781,-47.69915771484375,32.30717468261719
629,513096403,110.49096679687500,67.24313354492188,-64.47564697265625,-8.76243591308594,5.25887966156006,-3.74871063232422,92.92907714843750,-46.99660491943359,26.45469093322754
630,513104736,110.30264282226562,67.14350128173828,-65.56473541259766,-8.72235202789307,6.14776468276978,-2.88738656044006,97.52965545654297,-41.80963897705078,27.13937568664551
631,513113069,110.11521911621094,67.03514099121094,-66.52631378173828,-8.92609500885010,5.80131578445435,-2.44721484184265,83.44921112060547,-36.15741729736328,25.99669265747070
632,513121402,109.89078521728516,66.93846130371094,-67.50444793701172,-8.70672988891602,4.65631151199341,-2.56732487678528,80.18860626220703,-39.03243637084961,23.63428878784180
633,513129735,109.67842864990234,66.87230682373047,-68.49216461181641,-8.15553855895996,4.52404308319092,-2.33917260169983,82.59809112548828,-40.97407913208008,20.21938323974609
634,513138068,109.54579162597656,66.82657623291016,-69.40806579589844,-7.52632713317871,4.40774822235107,-2.86366844177246,84.78863525390625,-37.35670852661133,17.94287490844727
635,513146401,109.54671478271484,66.75666809082031,-70.24893188476562,-7.28703832626343,4.55943632125854,-3.44015789031982,92.50215148925781,-33.16124725341797,19.48365020751953
636,513154734,109.61142730712891,66.61148834228516,-71.06727600097656,-7.56590700149536,5.33101749420166,-2.84427070617676,96.96680450439453,-30.77620697021484,26.48441314697266
637,513163067,109.65295410156250,66.42646789550781,-71.90586853027344,-8.06336975097656,5.31704902648926,-2.37625455856323,96.25587463378906,-30.35990524291992,31.39812660217285
638,513171400,109.60147857666016,66.24822235107422,-72.84006500244141,-8.51657104492188,5.41305971145630,-1.71385979652405,96.16144561767578,-33.69111251831055,33.53459548950195
639,513179733,109.52769470214844,66.07318878173828,-73.80846405029297,-8.51507377624512,5.47178554534912,-1.65560626983643,97.09771728515625,-35.71701049804688,33.79780960083008
640,513188066,109.46892547607422,65.89364624023438,-74.77852630615234,-8.51279163360596,5.63785600662231,-1.58097994327545,98.18485260009766,-37.57328414916992,33.15860748291016
641,513196399,109.37411499023438,65.73177337646484,-75.76243591308594,-8.42792892456055,5.28771734237671,-1.82399356365204,95.26586914062500,-39.30629348754883,31.41752433776855
642,513204732,109.21720886230469,65.59793090820312,-76.79145050048828,-8.20471191406250,5.10259389877319,-2.23444294929504,93.33934783935547,-41.21463775634766,30.24501419067383
643,513213065,109.08589172363281,65.45910644531250,-77.77182006835938,-8.09439182281494,4.99813032150269,-2.77983522415161,90.97299194335938,-39.06473541259766,29.99922180175781
644,513221398,108.99545288085938,65.30300140380859,-78.72785186767578,-8.57234764099121,4.93707895278931,-2.82579922676086,92.26605224609375,-39.22957992553711,30.33455467224121
645,513229731,108.85932159423828,65.17709350585938,-79.70433807373047,-8.91304397583008,4.28434085845947,-2.86015772819519,88.86761474609375,-41.74033355712891,27.23677062988281
646,513238064,108.78542327880859,65.09659576416016,-80.67406463623047,-8.34251499176025,4.37996721267700,-3.08358240127563,96.36640930175781,-41.69035720825195,23.19506454467773
647,513246397,108.75981140136719,65.02743530273438,-81.54172515869141,-8.43345260620117,4.88105392456055,-2.49728012084961,90.99425506591797,-37.38996505737305,20.25595474243164
648,513254730,108.85193634033203,64.95904541015625,-82.29603576660156,-7.99813795089722,4.86967658996582,-2.81162881851196,91.87480926513672,-33.89932250976562,17.20695686340332
649,513263063,108.82797241210938,64.89318847656250,-83.09996032714844,-8.46979522705078,5.48917818069458,-1.90121030807495,83.20752716064453,-36.48554611206055,17.76833152770996
650,513271396,108.78704071044922,64.84347534179688,-83.91885375976562,-8.06203365325928,5.00322723388672,-3.51135230064392,83.69866180419922,-36.07746124267578,17.36464881896973
651,513279729,108.97113037109375,64.75832366943359,-84.60018920898438,-8.23599624633789,5.43166637420654,-3.12547922134399,94.76333618164062,-30.04902076721191,18.03331375122070
652,513288062,109.28253936767578,64.67437744140625,-85.13567352294922,-8.18600559234619,5.38679170608521,-3.27022981643677,95.12550354003906,-21.12366485595703,16.77178001403809
653,513296395,109.55516052246094,64.54994964599609,-85.68025207519531,-8.87738609313965,5.93410587310791,-2.02331686019897,90.34743499755859,-21.93120002746582,20.49255180358887
654,513304728,109.57803344726562,64.45866394042969,-86.36264038085938,-8.86032485961914,5.68257093429565,-2.30431747436523,76.30342864990234,-28.03893470764160,20.38549613952637
655,513313061,109.56552886962891,64.35755157470703,-87.12697601318359,-8.30057621002197,5.86725854873657,-2.82742714881897,79.86286926269531,-33.80730056762695,21.80816459655762
656,513321394,109.48820495605469,64.27179718017578,-87.94818115234375,-8.01422214508057,6.09383821487427,-2.53250193595886,79.18405914306641,-35.31179046630859,22.23687553405762
657,513329727,109.45651245117188,64.16323089599609,-88.71137237548828,-8.09778213500977,5.39931488037109,-2.53065919876099,77.19454956054688,-33.77834701538086,22.63934516906738
658,513338060,109.40814971923828,64.07566833496094,-89.49627685546875,-8.26819515228271,4.72982406616211,-2.46842813491821,78.59136962890625,-33.77169799804688,21.84712219238281
659,513346393,109.37382507324219,63.98336791992188,-90.27409362792969,-8.14356231689453,4.68827772140503,-2.27698612213135,78.28147125244141,-35.48822784423828,21.10613441467285
660,513354726,109.27347564697266,63.89876937866211,-91.10322570800781,-7.81587934494019,4.58204936981201,-2.31067132949829,76.98755645751953,-36.38234710693359,22.30048179626465
661,513363059,109.21671295166016,63.78818130493164,-91.90229034423828,-7.69081878662109,4.68041706085205,-2.30921030044556,77.73175048828125,-36.20521926879883,23.58234596252441
662,513371392,109.15077209472656,63.67752075195312,-92.71788024902344,-7.57490968704224,4.76841163635254,-2.26660132408142,79.50768280029297,-35.03893661499023,25.03336906433105
663,513379725,109.13462829589844,63.54607391357422,-93.49209594726562,-7.69402170181274,4.83022785186768,-2.26043510437012,79.69058990478516,-34.53162384033203,25.58185386657715
664,513388058,109.07604217529297,63.43146896362305,-94.31549835205078,-7.76252174377441,4.69062376022339,-2.19826126098633,81.04123687744141,-35.67075347900391,25.68513298034668
665,513396391,109.05142211914062,63.30126571655273,-95.12818145751953,-7.72862863540649,4.55588912963867,-2.19020509719849,82.58034515380859,-36.95341873168945,26.21250534057617
666,513404724,109.01168823242188,63.17890167236328,-95.96152496337891,-7.67835044860840,4.57623195648193,-2.23327541351318,84.17026519775391,-36.26999664306641,26.81410789489746
667,513413057,109.01410675048828,63.03403472900391,-96.75891113281250,-7.69746065139771,4.18024587631226,-2.39698100090027,83.95011138916016,-36.03168106079102,27.73947906494141
668,513421390,108.96189880371094,62.89966964721680,-97.62212371826172,-7.87458086013794,4.09161901473999,-2.46054291725159,85.65692901611328,-37.77024078369141,28.81830596923828
669,513429723,108.92883300781250,62.75678253173828,-98.47399902343750,-7.81391477584839,3.98299169540405,-2.63236141204834,85.26844787597656,-39.41870498657227,28.63636779785156
670,513438056,108.97594451904297,62.62078094482422,-99.27651977539062,-6.98597288131714,4.33353185653687,-3.21352815628052,90.87537384033203,-34.98778915405273,28.04008102416992
671,513446389,109.11928558349609,62.44277191162109,-99.95881652832031,-7.30603265762329,5.12437582015991,-2.78865122795105,88.07199859619141,-29.61278724670410,29.83185577392578
672,513454722,109.18249511718750,62.27032852172852,-100.70413208007812,-7.58816003799438,5.42454385757446,-2.82291841506958,86.46608734130859,-30.90834045410156,31.40983009338379
673,513463055,109.17534637451172,62.09431457519531,-101.52848052978516,-7.83495569229126,5.20750188827515,-2.65086007118225,84.78259277343750,-37.59630203247070,32.44199371337891
