sep=,
DeviceTag:,Xsens DOT
FirmwareVersion:,2.1.0
AppVersion:,2022.0.0
StartTime: ,2022-08-15_19:18:12_000 EDT
© Xsens Technologies B. V. 2005-2022

PacketCounter,SampleTimeFine,Euler_X,Euler_Y,Euler_Z,Acc_X,Acc_Y,Acc_Z,Gyr_X,Gyr_Y,Gyr_Z
0,608174377,110.65381622314453,61.88624191284180,-32.25451278686523,0.00000000000000,0.00000000000000,0.00000000000000,0.00000000000000,0.00000000000000,0.00000000000000
1,608182710,111.30282592773438,61.82857894897461,-32.47086715698242,-7.39333724975586,6.49478435516357,-5.16601610183716,99.67700195312500,-8.11933517456055,9.14464282989502
2,608191043,115.57856750488281,60.41603469848633,-28.47441101074219,-7.00554180145264,7.61414146423340,-4.56972980499268,116.36842346191406,-13.25026798248291,21.56043434143066
3,608199376,116.16877746582031,60.23031616210938,-29.06515693664551,-7.65046167373657,7.88408327102661,-3.53560185432434,131.35409545898438,-21.05018997192383,33.66134643554688
4,608207709,119.11466217041016,57.95768737792969,-26.72906684875488,-8.47279167175293,7.34382820129395,-3.27392077445984,145.35574340820312,-31.09362983703613,40.48178863525391
5,608216042,119.93827056884766,56.20283889770508,-27.32902336120605,-9.03495407104492,7.20541667938232,-3.86180114746094,158.72001647949219,-39.28015136718750,45.05969619750977
6,608224375,120.51423645019531,56.05511474609375,-28.32770538330078,-9.19752883911133,7.29635429382324,-4.55158090591431,167.68524169921875,-48.07954406738281,47.17491531372070
7,608232708,121.26961517333984,54.77999496459961,-29.17330932617188,-9.11707496643066,7.24182510375977,-5.15020608901978,171.54035949707031,-55.33094024658203,47.68566131591797
8,608241041,121.79943084716797,54.69316864013672,-30.35145950317383,-9.15147686004639,7.53231859207153,-5.65106868743896,178.08750915527344,-63.41395568847656,49.80317687988281
9,608249374,122.84204864501953,53.60680007934570,-31.08804321289062,-8.99892997741699,7.43218898773193,-6.26202297210693,180.15165710449219,-73.17175292968750,46.40174484252930
10,608257707,123.38401031494141,53.66290664672852,-32.37847137451172,-9.00265121459961,7.15918922424316,-6.87261343002319,188.81311035156250,-79.88971710205078,42.74540328979492
11,608266040,124.95318603515625,52.72675704956055,-32.80264663696289,-9.09235763549805,7.32448339462280,-6.98892164230347,195.22430419921875,-85.41192626953125,35.62412261962891
12,608274373,125.63567352294922,52.94997787475586,-34.08469772338867,-9.00862026214600,7.13130521774292,-7.05574512481689,203.60118103027344,-90.65115356445312,30.04886054992676
13,608282706,127.51174926757812,52.18305969238281,-34.35730743408203,-9.12336635589600,7.06751108169556,-7.33499383926392,209.60150146484375,-92.87952423095703,25.54240417480469
14,608291039,128.31051635742188,52.53551864624023,-35.61649322509766,-9.32078742980957,6.83771038055420,-7.42534875869751,214.60882568359375,-98.12959289550781,21.53605461120605
15,608299372,130.31842041015625,51.95762252807617,-35.86628723144531,-9.28016471862793,6.50133180618286,-7.97546386718750,220.10833740234375,-101.70239257812500,19.67391204833984
16,608307705,131.15138244628906,52.40856170654297,-37.17454910278320,-9.56612873077393,6.92688226699829,-8.39702415466309,223.09231567382812,-107.59724426269531,20.01011085510254
17,608316038,133.18301391601562,51.97854995727539,-37.49840927124023,-9.77646827697754,7.04300737380981,-9.12751388549805,226.23521423339844,-117.60494232177734,21.46345710754395
18,608324371,133.89280700683594,52.57659912109375,-39.01139068603516,-9.59812927246094,6.99165916442871,-9.84310722351074,227.91223144531250,-129.32257080078125,22.68655014038086
19,608332704,135.88761901855469,52.24660110473633,-39.46917724609375,-9.63672065734863,6.65063905715942,-10.42735671997070,231.07177734375000,-141.86253356933594,24.10018730163574
20,608341037,136.51838684082031,52.99869155883789,-41.17725753784180,-9.20177745819092,5.92236757278442,-11.22875690460205,237.71656799316406,-150.63574218750000,25.53193855285645
21,608349370,138.77388000488281,52.65692138671875,-41.56477355957031,-8.81234741210938,6.36958885192871,-11.41008472442627,246.99166870117188,-154.89425659179688,31.46854591369629
22,608357703,139.39096069335938,53.44121932983398,-43.43997573852539,-9.16720867156982,6.85108852386475,-11.88246726989746,253.03868103027344,-159.10688781738281,38.74462890625000
23,608366036,139.91763305664062,54.24421310424805,-45.45444488525391,-9.89067935943604,6.99078464508057,-11.45150756835938,257.49746704101562,-165.12135314941406,44.52553558349609
24,608374369,142.11706542968750,53.91791152954102,-45.98990631103516,-9.57141494750977,6.37339067459106,-11.84960842132568,251.00019836425781,-178.61380004882812,46.85579681396484
25,608382702,143.97625732421875,53.67477035522461,-46.76803970336914,-9.68417167663574,7.05558633804321,-12.65913772583008,237.92518615722656,-199.09144592285156,47.98057937622070
26,608391035,143.95172119140625,54.90948486328125,-49.12587356567383,-9.58489513397217,7.75903320312500,-13.42053890228271,226.00625610351562,-216.37094116210938,44.52219772338867
27,608399368,143.84786987304688,56.23320388793945,-51.57567596435547,-8.68956089019775,8.23862457275391,-12.37127494812012,229.17941284179688,-225.63484191894531,38.89617919921875
28,608407701,145.61889648437500,56.23986053466797,-52.43293380737305,-7.70198631286621,7.31826162338257,-11.00844955444336,239.74548339843750,-236.50608825683594,34.73082733154297
29,608416034,147.16337585449219,56.22934341430664,-53.57851409912109,-6.64381408691406,6.14714145660400,-10.04142379760742,252.86460876464844,-248.90895080566406,30.74888992309570
30,608424367,147.14627075195312,57.93129348754883,-56.12976074218750,-5.71359586715698,5.45959091186523,-9.95036602020264,254.18066406250000,-261.24475097656250,27.13069343566895
31,608432700,146.86486816406250,59.74182128906250,-58.90862655639648,-4.48682546615601,4.66239261627197,-9.92164707183838,250.77091979980469,-275.56793212890625,24.58715248107910
32,608441033,148.31475830078125,60.04347610473633,-60.12275314331055,-2.52754998207092,3.29128122329712,-9.97591686248779,256.52462768554688,-278.87191772460938,17.53099060058594
33,608449366,150.26545715332031,60.17805099487305,-60.90725708007812,0.38748970627785,2.06771659851074,-10.62571620941162,273.48095703125000,-256.88763427734375,5.26722240447998
34,608457699,150.97102355957031,61.85802459716797,-62.84584045410156,1.84424483776093,2.02069520950317,-10.37505054473877,287.42330932617188,-230.42257690429688,-2.62798905372620
35,608466032,151.82403564453125,63.43814849853516,-64.64446258544922,2.21769905090332,1.99098634719849,-9.52931022644043,293.28152465820312,-213.37413024902344,-5.59196662902832
36,608474365,155.13926696777344,63.08893585205078,-64.15515899658203,2.37621855735779,2.32202816009521,-8.25030803680420,300.12185668945312,-196.11103820800781,-6.47822809219360
37,608482698,158.41708374023438,62.54784011840820,-63.68123626708984,1.97221350669861,3.44226694107056,-6.26265096664429,300.92404174804688,-185.98559570312500,-1.68069672584534
38,608491031,159.81671142578125,63.91592788696289,-64.92819976806641,1.96690583229065,4.36699628829956,-5.36650133132935,300.85052490234375,-176.89706420898438,2.44870209693909
39,608499364,161.16087341308594,65.24748229980469,-66.17057800292969,1.45811188220978,5.36433506011963,-4.18077325820923,295.19454956054688,-171.43531799316406,5.02162265777588
40,608507697,164.12594604492188,64.73076629638672,-65.81831359863281,0.70207142829895,4.97814798355103,-1.59084200859070,286.66619873046875,-179.44892883300781,6.78937911987305
41,608516030,165.48741149902344,66.17331695556641,-66.93162536621094,0.74092328548431,3.48574900627136,1.21056711673737,284.15588378906250,-181.06733703613281,6.24409389495850
42,608524363,167.96348571777344,65.79801177978516,-66.91067504882812,1.36279594898224,2.28495645523071,-0.15273860096931,277.16326904296875,-173.34811401367188,3.26489281654358
43,608532696,169.40388488769531,67.12877655029297,-67.82202148437500,1.05059158802032,2.61869978904724,-2.41001987457275,272.38381958007812,-164.62760925292969,9.51418113708496
44,608541029,171.08224487304688,66.99925994873047,-68.59970092773438,-2.44002723693848,3.19288754463196,-1.66566395759583,276.95471191406250,-170.36851501464844,32.26659774780273
45,608549362,172.21565246582031,67.09515380859375,-69.99885559082031,-3.46582889556885,5.26092576980591,-0.11012238264084,284.61917114257812,-178.02032470703125,50.73430633544922
46,608557695,172.71755981445312,68.42182922363281,-71.93081665039062,-3.51056957244873,6.64812564849854,-0.58262646198273,274.14349365234375,-168.80082702636719,64.07292938232422
47,608566028,172.84358215332031,69.73890686035156,-74.19953155517578,-4.53704452514648,5.72240734100342,-1.79657864570618,268.73406982421875,-168.46383666992188,74.57021331787109
48,608574361,172.73442077636719,69.93619537353516,-76.71344757080078,-4.77223968505859,5.23890638351440,-2.76242899894714,268.09527587890625,-165.26579284667969,79.12236785888672
49,608582694,171.97369384765625,70.22078704833984,-79.78431701660156,-5.62967491149902,5.12068510055542,-2.71195077896118,257.32379150390625,-162.18310546875000,84.16719818115234
50,608591027,171.37690734863281,71.40716552734375,-82.57907867431641,-6.64487314224243,4.97098875045776,-3.09437990188599,244.47058105468750,-156.24885559082031,86.37877655029297
51,608599360,170.54446411132812,72.53079223632812,-85.57859802246094,-7.48004484176636,5.43984556198120,-2.50088882446289,241.69790649414062,-150.10000610351562,86.80861663818359
52,608607693,169.06739807128906,72.68878936767578,-89.21881103515625,-7.84324216842651,5.98490762710571,-1.62588429450989,239.78332519531250,-142.72624206542969,86.64332580566406
53,608616026,167.19224548339844,72.86965179443359,-93.19816589355469,-8.43329238891602,6.69274616241455,-1.12208390235901,233.61880493164062,-136.32218933105469,84.71477508544922
54,608624359,165.93539428710938,73.80665588378906,-96.50532531738281,-8.62722492218018,6.36467981338501,-0.69104808568954,228.71931457519531,-135.20326232910156,82.47292327880859
55,608632692,164.44528198242188,74.71425628662109,-100.00510406494141,-8.64186000823975,6.55304193496704,-0.48174938559532,224.75238037109375,-133.82937622070312,80.24626159667969
56,608641025,161.73773193359375,74.88031768798828,-104.67285156250000,-8.60961055755615,6.67963218688965,-0.15447989106178,216.80459594726562,-134.88298034667969,79.37337493896484
57,608649358,158.41815185546875,75.06803131103516,-109.88110351562500,-8.63109779357910,6.54376602172852,-0.27670162916183,208.46394348144531,-134.82676696777344,79.95407104492188
58,608657691,156.04469299316406,75.81462860107422,-114.07327270507812,-8.68171977996826,6.29007291793823,-0.78834366798401,201.43397521972656,-130.90887451171875,79.85194396972656
59,608666024,153.36387634277344,76.48471832275391,-118.50407409667969,-9.11931991577148,6.01554775238037,-1.23078358173370,193.88957214355469,-126.46772766113281,78.65323638916016
60,608674357,149.33657836914062,76.42844390869141,-124.23954772949219,-9.81165218353271,5.58387327194214,-1.52688610553741,186.54344177246094,-122.49671173095703,76.43859863281250
61,608682690,145.26533508300781,76.31874084472656,-129.96905517578125,-10.56102371215820,5.36151409149170,-1.56299805641174,180.63320922851562,-120.51985168457031,72.38153839111328
62,608691023,142.26560974121094,76.78598785400391,-134.53727722167969,-11.44025802612305,5.97599792480469,-1.39166510105133,172.51655578613281,-119.93395996093750,67.59947204589844
63,608699356,139.02629089355469,77.23137664794922,-139.32078552246094,-11.60872268676758,6.18416881561279,-0.17778117954731,169.95031738281250,-122.52609252929688,63.81695938110352
64,608707689,134.73434448242188,77.02780151367188,-145.09211730957031,-12.30182647705078,6.45309591293335,0.31413507461548,157.90994262695312,-128.79342651367188,59.67047119140625
65,608716022,130.40553283691406,76.78993225097656,-150.85978698730469,-11.31236839294434,5.91719579696655,0.19152534008026,153.29548645019531,-128.25875854492188,56.18136978149414
66,608724355,126.97296142578125,77.07693481445312,-155.65150451660156,-10.84229946136475,6.81704187393188,-0.03945568948984,147.54205322265625,-122.33273315429688,52.29287338256836
67,608732688,123.27110290527344,77.30395507812500,-160.64285278320312,-10.64842319488525,6.80739402770996,0.72239351272583,139.17440795898438,-123.65084838867188,52.04037475585938
68,608741021,119.35568237304688,76.83612823486328,-165.83113098144531,-9.99379348754883,6.61750888824463,0.63183832168579,133.18887329101562,-117.88780975341797,49.93853759765625
69,608749354,115.82804107666016,76.31175231933594,-170.50276184082031,-9.62613201141357,6.55392932891846,-0.28497084975243,118.98427581787109,-107.74116516113281,44.44389724731445
70,608757687,112.90825653076172,76.33084869384766,-174.49630737304688,-9.50333213806152,6.07148742675781,-0.26444011926651,114.58130645751953,-103.51427459716797,42.57569503784180
71,608766020,110.20377349853516,76.31650543212891,-178.18562316894531,-9.48588752746582,7.27909374237061,-0.39934700727463,104.94702911376953,-96.09593200683594,37.96274948120117
72,608774353,107.59363555908203,75.67170715332031,178.23518371582031,-9.25159645080566,6.09294939041138,-0.03768521547318,98.32427215576172,-93.70233917236328,36.16189956665039
73,608782686,105.34783172607422,75.00406646728516,175.07769775390625,-9.79189682006836,6.31443691253662,-0.44845429062843,91.98276519775391,-86.98797607421875,33.13539886474609
74,608791019,103.41904449462891,74.92324066162109,172.34117126464844,-9.62917709350586,5.53164291381836,-0.36604779958725,84.99857330322266,-79.44557189941406,28.46216583251953
75,608799352,101.79652404785156,74.26663208007812,169.93443298339844,-9.80782127380371,5.93212127685547,-0.09940837323666,77.78209686279297,-74.27445983886719,24.96918869018555
76,608807685,100.13133239746094,74.17844390869141,167.59208679199219,-9.66091823577881,6.09041166305542,0.15618582069874,69.97338104248047,-72.34590911865234,22.82258796691895
77,608816018,98.68894958496094,73.52474975585938,165.43931579589844,-9.56252384185791,5.59503078460693,0.40175020694733,68.62068939208984,-72.94519805908203,22.60824203491211
78,608824351,97.27624511718750,73.42903900146484,163.40246582031250,-9.31848907470703,5.67005586624146,0.22442822158337,64.11153411865234,-66.56151580810547,18.92956733703613
79,608832684,96.18590545654297,72.82647705078125,161.72535705566406,-9.35159683227539,5.03822708129883,-0.00179927423596,55.08718872070312,-62.56524276733398,14.83998107910156
80,608841017,95.00647735595703,72.76502227783203,159.97659301757812,-9.21368789672852,4.80815124511719,0.33815261721611,58.23888015747070,-60.36396408081055,11.29209327697754
81,608849350,94.09420013427734,72.23229217529297,158.50016784667969,-9.72108078002930,5.10430097579956,1.07527732849121,52.63302993774414,-59.76659393310547,7.77018642425537
82,608857683,92.94142913818359,72.20834350585938,156.91810607910156,-9.56107330322266,5.15939331054688,0.62674450874329,41.75246810913086,-56.98707199096680,4.32207489013672
83,608866016,92.12815856933594,71.70141601562500,155.57017517089844,-9.66514205932617,3.85694384574890,1.60557913780212,49.56669998168945,-56.94928359985352,6.03990507125854
84,608874349,91.12626647949219,71.68328094482422,154.11587524414062,-10.51829814910889,6.43451023101807,0.62859201431274,44.76018524169922,-54.03123092651367,1.62552475929260
85,608882682,90.31469726562500,71.21054840087891,152.91513061523438,-9.40969276428223,4.61153316497803,-0.47405183315277,32.92884063720703,-52.58446121215820,3.53053712844849
86,608891015,89.57923889160156,71.15944671630859,151.69923400878906,-9.19015693664551,4.17010831832886,-0.97293436527252,49.15592575073242,-46.35040283203125,3.98060917854309
87,608899348,89.07905578613281,70.71121978759766,150.68951416015625,-9.92262077331543,5.55968332290649,0.74915641546249,47.67646789550781,-48.34397125244141,3.15147304534912
88,608907681,88.24461364746094,70.65092468261719,149.44726562500000,-10.24489593505859,4.27694368362427,1.50049376487732,39.84910202026367,-48.75514221191406,3.97436976432800
89,608916014,87.84793090820312,70.24612426757812,148.54400634765625,-10.87075519561768,3.97849297523499,1.39372515678406,48.12217330932617,-44.42849349975586,0.14957489073277
90,608924347,87.15398406982422,70.21717071533203,147.45993041992188,-11.09493923187256,4.55203962326050,0.80886209011078,38.44901275634766,-43.38405990600586,-0.56218284368515
91,608932680,86.79277038574219,69.86155700683594,146.64401245117188,-10.88366031646729,3.51473402976990,0.89572936296463,42.73375701904297,-40.84683990478516,-2.38640880584717
92,608941013,86.16693878173828,69.87056732177734,145.62297058105469,-11.13211631774902,4.80738687515259,1.34688329696655,39.24167251586914,-41.30133056640625,-5.78319835662842
93,608949346,85.67648315429688,69.56587219238281,144.77787780761719,-10.79624366760254,3.93774890899658,0.94182014465332,30.76906013488770,-41.75209808349609,-5.59698057174683
94,608957679,85.12386322021484,69.60613250732422,143.80755615234375,-10.49614238739014,4.18870258331299,1.46028089523315,42.11495590209961,-39.36183929443359,-10.19365024566650
95,608966012,84.42613220214844,69.63725280761719,142.79269409179688,-10.95002841949463,4.43918085098267,0.73951393365860,29.73734283447266,-41.17587661743164,-9.69219303131104
96,608974345,84.11088562011719,69.42095947265625,142.06280517578125,-10.12286281585693,2.74958634376526,0.10805892944336,38.97988510131836,-36.28519439697266,-13.48285770416260
97,608982678,83.70150756835938,69.24138641357422,141.25648498535156,-11.08353996276855,3.85704851150513,0.34551247954369,36.45252227783203,-39.25617599487305,-15.09648036956787
98,608991011,83.07377624511719,69.32323455810547,140.26602172851562,-11.02420043945312,2.49751710891724,0.13722568750381,35.14419937133789,-39.89328002929688,-16.72609138488770
99,608999344,82.67944335937500,69.18223571777344,139.46032714843750,-11.40049266815186,2.94652986526489,0.19232359528542,38.19527053833008,-39.31491088867188,-16.69599342346191
100,609007677,82.13732147216797,69.26477813720703,138.50433349609375,-11.24875164031982,1.86533153057098,-0.14820821583271,41.50744628906250,-38.28340911865234,-17.33108139038086
101,609016010,81.89015197753906,69.16932678222656,137.79817199707031,-11.15684604644775,2.69245553016663,0.03357687592506,44.71850204467773,-35.10246658325195,-17.97176742553711
102,609024343,81.40226745605469,69.23234558105469,136.87939453125000,-11.25182533264160,2.39565706253052,-0.11069820821285,43.82316207885742,-36.88805389404297,-15.30627155303955
103,609032676,81.22731018066406,69.13858032226562,136.17762756347656,-10.96060943603516,2.81588983535767,0.18956783413887,52.92629241943359,-35.55067062377930,-15.02798175811768
104,609041009,80.82558441162109,69.17398834228516,135.29376220703125,-11.37008094787598,3.29402112960815,0.55464017391205,50.21884536743164,-35.86645889282227,-12.22028732299805
105,609049342,80.66130828857422,69.06347656250000,134.62251281738281,-11.50372123718262,2.72817635536194,0.12632781267166,50.90934753417969,-34.87126541137695,-10.49851703643799
106,609057675,80.33723449707031,69.09897613525391,133.78063964843750,-11.51048564910889,3.26280856132507,0.53824442625046,54.77798080444336,-34.12184906005859,-12.29137134552002
107,609066008,80.09593963623047,68.99105834960938,133.04953002929688,-11.97450542449951,3.14994716644287,0.40219879150391,48.49401473999023,-37.69751739501953,-8.96903419494629
108,609074341,79.67763519287109,68.99078369140625,132.13255310058594,-11.61225414276123,2.77313566207886,0.14745388925076,51.82743453979492,-38.09199142456055,-9.03455829620361
109,609082674,79.40676116943359,68.88726043701172,131.33589172363281,-11.98600292205811,3.27244448661804,0.36800849437714,52.34259796142578,-40.83952331542969,-7.98783016204834
110,609091007,78.83829498291016,68.84149169921875,130.26574707031250,-12.44335079193115,3.28864192962646,0.39470788836479,50.86569213867188,-45.75835800170898,-5.49304723739624
111,609099340,78.45423889160156,68.73952484130859,129.35478210449219,-12.41416358947754,3.30168914794922,0.55970489978790,51.56752395629883,-46.13586044311523,-7.67006158828735
112,609107673,77.81175994873047,68.68492126464844,128.23126220703125,-12.92286872863770,3.43088078498840,0.15534795820713,47.82759094238281,-48.49626922607422,-5.80075120925903
113,609116006,77.13587951660156,68.63124847412109,127.04119110107422,-12.63740921020508,3.22120022773743,0.30383852124214,51.21383285522461,-51.38382339477539,-7.12655305862427
114,609124339,76.56206512451172,68.51405334472656,125.93325042724609,-13.04005622863770,3.03274035453796,0.45712354779243,50.66929626464844,-55.72112655639648,-7.20396280288696
115,609132672,75.90518951416016,68.40010070800781,124.70796203613281,-13.15417480468750,2.72521591186523,0.46504604816437,53.84931182861328,-61.10085678100586,-7.45071172714233
116,609141005,75.04655456542969,68.28918457031250,123.22544860839844,-13.98547935485840,2.51151466369629,1.61490023136139,61.61129760742188,-66.13725280761719,-5.72295331954956
117,609149338,74.33235168457031,68.19442749023438,121.91738891601562,-14.07988739013672,3.42812442779541,1.39312160015106,56.33636474609375,-64.40509033203125,-9.84768867492676
118,609157671,73.47503662109375,68.07864379882812,120.47309112548828,-13.61691284179688,2.79428601264954,0.29522982239723,57.27271652221680,-65.11552429199219,-6.69432401657104
119,609166004,72.85789489746094,67.95389556884766,119.17531585693359,-13.35591793060303,3.54806160926819,1.72582197189331,66.81943511962891,-65.52446746826172,-6.05517530441284
120,609174337,72.02033996582031,67.83300018310547,117.73026275634766,-13.74886512756348,4.39771509170532,2.68137216567993,59.45386123657227,-65.84410095214844,-8.01093387603760
121,609182670,71.22834014892578,67.68457031250000,116.33824157714844,-13.73200511932373,3.12435388565063,1.60885226726532,58.87613677978516,-64.86746215820312,-5.18112850189209
122,609191003,70.73353576660156,67.62847137451172,115.22042846679688,-13.16613769531250,2.65102267265320,1.85398828983307,61.65925216674805,-55.02396774291992,-12.58547782897949
123,609199336,70.17640686035156,67.59873199462891,114.11712646484375,-13.29268264770508,2.64705324172974,1.09701466560364,52.95871353149414,-53.00984954833984,-14.22947025299072
124,609207669,69.58784484863281,67.55072021484375,112.96778106689453,-12.52140617370605,2.02867817878723,0.58032703399658,56.16676330566406,-50.64054870605469,-14.84186077117920
125,609216002,69.05222320556641,67.56598663330078,111.87290191650391,-11.71776485443115,2.05271577835083,0.41735041141510,56.45999908447266,-45.53044128417969,-21.57578659057617
126,609224335,68.61593627929688,67.62763977050781,110.86443328857422,-11.59484481811523,1.88656771183014,0.23562751710415,57.17534255981445,-44.90604782104492,-22.48933601379395
127,609232668,68.25836944580078,67.80062866210938,109.88990783691406,-10.49911212921143,0.69324523210526,0.31042179465294,63.02503967285156,-38.68796157836914,-33.10476684570312
128,609241001,67.79747772216797,67.94188690185547,108.81137847900391,-10.39451885223389,1.19239175319672,-0.55628252029419,63.88275909423828,-38.13093566894531,-36.11465072631836
129,609249334,67.41129302978516,68.11454772949219,107.73897552490234,-10.24524307250977,0.25963237881660,-0.20957128703594,72.30165100097656,-35.87755203247070,-39.64968490600586
130,609257667,67.11618804931641,68.40791320800781,106.71733856201172,-9.40840053558350,0.75728768110275,-0.35762572288513,76.40158081054688,-33.90429306030273,-45.75991058349609
131,609266000,66.88955688476562,68.72364044189453,105.75362396240234,-9.36003208160400,0.83726900815964,0.12139663100243,78.48059844970703,-30.33845138549805,-45.56925582885742
132,609274333,66.64645385742188,68.93762207031250,104.73883819580078,-9.80153560638428,2.70556879043579,0.34385806322098,83.68375396728516,-29.54984664916992,-43.09846115112305
133,609282666,66.43055725097656,69.17711639404297,103.75909423828125,-9.14753723144531,1.72003340721130,0.52078562974930,83.19670867919922,-26.36581039428711,-45.24771118164062
134,609290999,66.41108703613281,69.48452758789062,102.96992492675781,-8.63099098205566,2.82050395011902,-0.31664264202118,84.49852752685547,-22.15495681762695,-40.60609054565430
135,609299332,66.48056030273438,69.84056854248047,102.22697448730469,-7.46570062637329,0.47189152240753,-0.63978230953217,90.13406372070312,-17.79380989074707,-44.91810226440430
136,609307665,66.54067230224609,70.12755584716797,101.42726898193359,-7.26443195343018,1.46069180965424,-0.65376776456833,96.67806243896484,-15.67701911926270,-46.82970428466797
137,609315998,66.58195495605469,70.38165283203125,100.60926055908203,-7.86463594436646,2.25195407867432,-0.62277144193649,96.64123535156250,-17.56395912170410,-43.31915283203125
138,609324331,66.71649169921875,70.69337463378906,99.86924743652344,-7.81110334396362,2.27030897140503,-0.93504536151886,98.13899993896484,-19.01012992858887,-38.78795242309570
139,609332664,66.94861602783203,71.01290130615234,99.20635986328125,-6.94803380966187,2.23068046569824,-1.60814881324768,101.06295776367188,-16.05094528198242,-38.49496459960938
140,609340997,67.25403594970703,71.24510955810547,98.62719726562500,-6.59272146224976,3.09898066520691,-2.17204833030701,101.70967102050781,-9.15104866027832,-36.56545257568359
141,609349330,67.68388366699219,71.45390319824219,98.19514465332031,-6.86895561218262,4.13929176330566,-2.11312484741211,100.00121307373047,-4.98662805557251,-31.64623451232910
142,609357663,68.23330688476562,71.72994232177734,97.90259552001953,-6.78976917266846,4.00764846801758,-2.35771417617798,96.96488189697266,-5.70895242691040,-28.27204704284668
143,609365996,68.89041137695312,71.97437286376953,97.70050048828125,-5.97337961196899,4.37463474273682,-2.69071364402771,99.04162597656250,-5.21415901184082,-24.84501457214355
144,609374329,69.45676422119141,72.11109161376953,97.40965270996094,-5.55433320999146,4.86943531036377,-2.46124172210693,100.45346069335938,-3.52006936073303,-21.31134414672852
145,609382662,70.10356903076172,72.24153137207031,97.22763061523438,-4.86775398254395,5.19417572021484,-2.63191294670105,97.70468139648438,-0.14490100741386,-19.14519691467285
146,609390995,71.09313964843750,72.41568756103516,97.40648651123047,-4.47601222991943,5.48085641860962,-2.50548934936523,94.89244079589844,3.26869773864746,-13.79007434844971
147,609399328,72.22254180908203,72.53318023681641,97.72676086425781,-4.28768301010132,5.45752620697021,-1.89038538932800,94.86811065673828,4.69155359268188,-8.13742637634277
148,609407661,73.13684844970703,72.58676910400391,97.84149169921875,-3.68748807907104,5.47146272659302,-1.71423804759979,95.86731719970703,6.55080413818359,-7.07196807861328
149,609415994,74.22473907470703,72.62427520751953,98.14457702636719,-3.63403987884521,5.59469795227051,-1.89390552043915,95.13304901123047,12.41064548492432,-3.41760683059692
150,609424327,75.68428039550781,72.65452575683594,98.82498168945312,-4.18061161041260,5.68405008316040,-1.83110177516937,92.77246856689453,13.35896396636963,2.55256795883179
151,609432660,77.08496093750000,72.60779571533203,99.43344116210938,-4.67475652694702,5.81355953216553,-2.06029605865479,93.56791687011719,8.33144092559814,8.18579673767090
152,609440993,78.03422546386719,72.47638702392578,99.61088562011719,-5.02627229690552,6.13753414154053,-2.17054986953735,92.88299560546875,3.53319096565247,14.60418415069580
153,609449326,78.85043334960938,72.27384948730469,99.65361785888672,-5.62872457504272,6.55380201339722,-2.39986109733582,92.34922027587891,-2.64743161201477,21.96544647216797
154,609457659,79.84196472167969,72.00505065917969,99.87812042236328,-6.21380186080933,7.00783681869507,-2.28028368949890,88.02452850341797,-9.92333889007568,29.17705535888672
155,609465992,80.66521453857422,71.66764831542969,99.94423675537109,-6.37658929824829,7.01913690567017,-2.32394790649414,85.47900390625000,-17.09840011596680,34.24123001098633
156,609474325,80.90193176269531,71.31532287597656,99.46432495117188,-6.41804885864258,6.98342800140381,-2.18448400497437,82.29696655273438,-24.13117218017578,36.61407470703125
157,609482658,81.06719207763672,70.94531250000000,98.92005920410156,-6.53145027160645,6.97674274444580,-2.56878304481506,80.91999816894531,-27.12491416931152,38.37957382202148
158,609490991,81.60266113281250,70.52577972412109,98.73575592041016,-6.99391412734985,7.35628700256348,-2.41895937919617,78.73078918457031,-28.06158447265625,41.04380416870117
159,609499324,82.08640289306641,70.08776855468750,98.51358795166016,-7.46188402175903,7.29425764083862,-2.75668764114380,76.28182220458984,-30.19878959655762,41.42130279541016
160,609507657,82.02294158935547,69.67761230468750,97.80544281005859,-7.89162397384644,7.59235095977783,-2.71449589729309,71.45494842529297,-35.06544876098633,42.49940490722656
161,609515990,81.81536102294922,69.26264190673828,96.97431182861328,-8.06248855590820,6.91117954254150,-3.30057835578918,67.77758026123047,-40.93983078002930,42.20309829711914
162,609524323,81.89650726318359,68.79802703857422,96.40070343017578,-8.39662075042725,6.77919530868530,-2.89264893531799,66.34203338623047,-46.86576461791992,41.19164276123047
163,609532656,81.81846618652344,68.37710571289062,95.67313385009766,-8.29867076873779,5.43110227584839,-3.47772574424744,63.70135879516602,-54.06432342529297,33.98289108276367
164,609540989,81.23503112792969,68.05095672607422,94.45960998535156,-8.07258987426758,5.61101198196411,-4.14835596084595,64.48592376708984,-58.53837585449219,28.51556587219238
165,609549322,80.74577331542969,67.75583648681641,93.35161590576172,-7.53204870223999,5.72898721694946,-4.17945480346680,63.76313018798828,-54.25773620605469,24.94287681579590
166,609557655,80.77294158935547,67.42256164550781,92.71887207031250,-7.14200210571289,5.31817626953125,-4.02306318283081,64.34058380126953,-51.49876785278320,23.40390205383301
167,609565988,80.81690216064453,67.09198760986328,92.08172607421875,-6.75090980529785,5.28715324401855,-4.11609697341919,66.03723144531250,-53.09466934204102,22.64082145690918
168,609574321,80.42877197265625,66.80479431152344,91.06854248046875,-6.58242273330688,5.89891242980957,-3.58175754547119,64.56887817382812,-51.90812683105469,23.98933601379395
169,609582654,80.10396575927734,66.51407623291016,90.12284851074219,-6.42849206924438,6.12034034729004,-2.97300004959106,64.49712371826172,-49.52869415283203,24.56201934814453
170,609590987,80.21640014648438,66.16600036621094,89.59820556640625,-6.64878797531128,6.58649826049805,-2.29413485527039,60.54421234130859,-50.60289764404297,25.04894638061523
171,609599320,80.26367187500000,65.78487396240234,89.02054595947266,-6.90055990219116,6.91149282455444,-2.26089143753052,57.99328613281250,-54.47265243530273,27.81294441223145
172,609607653,79.79096984863281,65.44670104980469,87.96229553222656,-6.98221731185913,7.04896926879883,-2.54568719863892,58.20228958129883,-57.98862838745117,28.60049247741699
173,609615986,79.70243072509766,65.04736328125000,87.27872467041016,-6.82864236831665,7.53532886505127,-3.13580226898193,52.31109237670898,-61.50364685058594,28.00699806213379
174,609624319,79.11140441894531,64.71476745605469,86.21392822265625,-6.30686712265015,7.38614034652710,-4.13200807571411,44.03345870971680,-59.98139190673828,26.95819664001465
175,609632652,79.05051422119141,64.33874511718750,85.68980407714844,-5.96812009811401,7.20329284667969,-4.82136154174805,37.12886428833008,-54.95551300048828,25.38494300842285
176,609640985,78.56575012207031,64.03042602539062,84.81785583496094,-5.94145107269287,7.31730699539185,-5.21511030197144,35.28060913085938,-51.20910644531250,25.13377189636230
177,609649318,78.62346649169922,63.66257476806641,84.44813537597656,-6.09709119796753,7.67855739593506,-5.10459375381470,33.38570022583008,-48.82946014404297,24.84486007690430
178,609657651,78.18685913085938,63.36837768554688,83.67361450195312,-6.43396615982056,8.02182006835938,-5.00083732604980,30.05470085144043,-47.02934646606445,23.91771507263184
179,609665984,78.27405548095703,63.00354385375977,83.38140106201172,-6.78080034255981,8.46385288238525,-4.81750297546387,27.37723159790039,-46.36634445190430,24.22488021850586
180,609674317,77.83301544189453,62.69842529296875,82.64716339111328,-6.97238492965698,8.81552505493164,-4.67995119094849,24.72845268249512,-46.24891281127930,25.14327430725098
181,609682650,77.90060424804688,62.30460357666016,82.37065124511719,-6.96071290969849,9.24667644500732,-4.43474149703979,22.16205406188965,-47.71149444580078,26.62596130371094
182,609690983,77.41203308105469,62.00967788696289,81.66646575927734,-6.65917873382568,8.41570949554443,-4.81547021865845,15.34277343750000,-45.45465087890625,23.76012039184570
183,609699316,77.59838104248047,61.60549926757812,81.58270263671875,-6.85241174697876,10.00843143463135,-4.38319110870361,14.86744403839111,-38.63690567016602,29.00983619689941
184,609707649,77.20180511474609,61.31402969360352,81.06427764892578,-6.82563066482544,8.79522132873535,-4.38589429855347,6.30686378479004,-35.97381973266602,25.24985122680664
185,609715982,77.30912017822266,60.93255615234375,80.99192047119141,-6.57026863098145,9.22972965240479,-4.37467956542969,3.20456457138062,-38.23336410522461,25.28438377380371
186,609724315,76.81277465820312,60.67652511596680,80.44612884521484,-7.02702999114990,7.86190223693848,-4.06434917449951,-3.14615035057068,-37.35570526123047,20.36484527587891
187,609732648,76.88555145263672,60.35720825195312,80.36637115478516,-6.62629652023315,7.46894168853760,-4.53400325775146,-1.02341830730438,-37.78663635253906,17.00466346740723
188,609740981,76.53182983398438,60.08430099487305,79.99933624267578,-7.05802011489868,10.37083244323730,-4.57375860214233,-4.97965669631958,-28.15839004516602,24.39807701110840
189,609749314,76.64964294433594,59.71748352050781,80.12178039550781,-7.92525148391724,8.63308811187744,-4.38865137100220,-17.53850555419922,-27.98311042785645,24.39333152770996
190,609757647,76.05851745605469,59.45795822143555,79.56779479980469,-7.16548681259155,8.22634696960449,-5.18853902816772,-14.36807537078857,-39.39558410644531,19.85308074951172
191,609765980,76.18515777587891,59.09564590454102,79.65336608886719,-6.36049938201904,8.79732513427734,-5.39637470245361,-13.47313213348389,-30.77769660949707,22.77968025207520
192,609774313,75.88175964355469,58.82598114013672,79.43916320800781,-6.69229125976562,9.14808654785156,-5.43360948562622,-15.15506172180176,-20.02069473266602,25.70494842529297
193,609782646,76.17820739746094,58.43483734130859,79.78628540039062,-7.29833936691284,9.85751247406006,-5.47297096252441,-20.82893753051758,-16.29592895507812,29.17822647094727
194,609790979,75.84756469726562,58.13835144042969,79.62253570556641,-8.09872531890869,9.41005897521973,-5.00841951370239,-23.73572540283203,-17.97361564636230,29.50246238708496
195,609799312,75.98458862304688,57.79950714111328,79.79029083251953,-7.98342561721802,7.61522006988525,-5.77363300323486,-22.43778228759766,-26.00720787048340,19.56702423095703
196,609807645,75.54448699951172,57.62412261962891,79.43827056884766,-7.50958347320557,6.83761405944824,-5.67066669464111,-17.88149452209473,-26.40407752990723,12.29665088653564
197,609815978,75.83309173583984,57.48181533813477,79.74220275878906,-6.29361915588379,4.70999050140381,-6.65127658843994,-18.75831031799316,-12.44065952301025,-1.11578214168549
198,609824311,75.91341400146484,57.34603500366211,79.85190582275391,-6.77913904190063,11.17087554931641,-4.83411312103271,-2.23804402351379,3.53708314895630,14.94620227813721
199,609832644,76.45423126220703,57.03289031982422,80.49603271484375,-10.00682163238525,11.23545551300049,-2.94566845893860,-23.39306831359863,3.89171504974365,23.49484443664551
200,609840977,75.90333557128906,56.77643585205078,80.05438995361328,-9.98776721954346,7.33872270584106,-4.41282176971436,-22.49989318847656,-34.82120895385742,20.35340499877930
201,609849310,75.95302581787109,56.53709793090820,79.99922943115234,-6.26657342910767,4.79523086547852,-7.04228734970093,-12.38385963439941,-38.38869476318359,3.86902308464050
202,609857643,75.87110137939453,56.40289306640625,79.87537384033203,-4.90066289901733,8.22814178466797,-5.32090806961060,1.75955736637115,-11.25766277313232,10.98032474517822
203,609865976,76.54684448242188,56.13752746582031,80.57653045654297,-7.90389633178711,8.30601596832275,-4.58668184280396,-13.50585556030273,9.22001457214355,18.89897346496582
204,609874309,76.32604217529297,55.92391204833984,80.41044616699219,-9.47174835205078,8.28872203826904,-4.32499408721924,-10.77263736724854,-16.22045516967773,19.63333702087402
205,609882642,76.60297393798828,55.62565994262695,80.65209960937500,-8.04198837280273,9.13032531738281,-4.57773160934448,-15.89072704315186,-21.29100608825684,15.42133140563965
206,609890975,76.42357635498047,55.45975112915039,80.55326843261719,-7.48432922363281,10.16191005706787,-4.56932878494263,-12.56201934814453,-10.55862522125244,15.09090042114258
207,609899308,76.81566619873047,55.18833160400391,80.95423889160156,-8.28678226470947,9.67890167236328,-4.82542896270752,-18.24887084960938,-9.83587074279785,14.31230735778809
208,609907641,76.45763397216797,55.04672241210938,80.71730804443359,-8.36109638214111,8.51556205749512,-5.04502725601196,-20.45974540710449,-19.14934349060059,10.03672790527344
209,609915974,76.70057678222656,54.82362747192383,80.95302581787109,-7.56444835662842,8.19288921356201,-4.82077693939209,-20.31361389160156,-19.60440635681152,5.86339712142944
210,609924307,76.38121032714844,54.78252029418945,80.78407287597656,-7.14254570007324,7.57727050781250,-5.48034143447876,-22.58177566528320,-11.92266464233398,-0.69181525707245
211,609932640,76.73451232910156,54.63498687744141,81.10531616210938,-7.41248083114624,8.66616821289062,-4.98603963851929,-15.83147239685059,-11.98380184173584,-1.63821005821228
212,609940973,76.46249389648438,54.62809753417969,81.00256347656250,-7.49575948715210,8.29128742218018,-5.05281352996826,-23.42379379272461,-6.55496740341187,-3.65428233146667
213,609949306,76.82067871093750,54.48361587524414,81.32392883300781,-7.54746532440186,7.96635723114014,-4.93881130218506,-15.58068084716797,-12.07862663269043,-2.23166632652283
214,609957639,76.51707458496094,54.48477554321289,81.12328338623047,-7.26237869262695,7.23023986816406,-5.93508720397949,-17.68176841735840,-13.01275348663330,-6.19816064834595
215,609965972,76.95304107666016,54.36876296997070,81.44747924804688,-7.15386247634888,7.28585529327393,-5.81111097335815,-6.86033821105957,-11.43352890014648,-5.45391130447388
216,609974305,76.77857971191406,54.38227462768555,81.31579589843750,-7.61857938766479,6.43905830383301,-5.34704828262329,-8.94560718536377,-8.04019355773926,-6.54165887832642
217,609982638,77.22483825683594,54.29510879516602,81.59807586669922,-7.43477916717529,5.81720733642578,-5.24216413497925,-1.83622062206268,-13.88700199127197,-9.26166057586670
218,609990971,77.07275390625000,54.33739089965820,81.38102722167969,-7.02718210220337,5.63172960281372,-5.20090579986572,2.04164719581604,-13.14090061187744,-11.22769546508789
219,609999304,77.65419769287109,54.29850006103516,81.71936035156250,-7.08457803726196,5.40120887756348,-4.90593004226685,8.76197814941406,-9.17545795440674,-13.51563549041748
220,610007637,77.61808776855469,54.38288879394531,81.58828735351562,-7.17752313613892,5.48976469039917,-4.44646930694580,7.57401657104492,-6.26178598403931,-14.79265975952148
221,610015970,78.17117309570312,54.41387176513672,81.94155883789062,-7.39708852767944,4.85589790344238,-4.57223367691040,3.89791226387024,-6.72681331634521,-21.03172874450684
222,610024303,78.04401397705078,54.59555816650391,81.76110839843750,-7.00044775009155,5.32090377807617,-4.60313558578491,1.48615169525146,-7.30024099349976,-26.89768028259277
223,610032636,77.81481933593750,54.79684066772461,81.50911712646484,-7.34688711166382,5.35678529739380,-4.50055265426636,-3.68130683898926,-11.48707294464111,-30.14511108398438
224,610040969,78.13641357421875,54.94881439208984,81.65478515625000,-7.02107524871826,4.69965887069702,-4.50544118881226,-3.46356177330017,-18.54294013977051,-37.67841720581055
225,610049302,78.54743194580078,55.18969345092773,81.84105682373047,-5.66124248504639,4.87191104888916,-4.11784696578979,3.42945885658264,-14.05433177947998,-46.90978240966797
226,610057635,78.49259185791016,55.60123825073242,81.68720245361328,-4.82938671112061,5.42891359329224,-3.60363268852234,7.70781564712524,0.03233805298805,-53.52437973022461
227,610065968,78.44806671142578,56.03686523437500,81.56600952148438,-4.81817817687988,6.01558303833008,-2.93881201744080,5.81264114379883,2.96696901321411,-55.79090118408203
228,610074301,79.00374603271484,56.38348770141602,81.95808410644531,-4.52415800094604,6.31766510009766,-2.63714003562927,0.81367677450180,0.80158680677414,-56.65729904174805
229,610082634,79.56916809082031,56.73418045043945,82.42728424072266,-3.77328729629517,6.39603614807129,-2.52355194091797,-5.35561943054199,5.57366085052490,-56.63871765136719
230,610090967,79.51998138427734,57.18210601806641,82.41912078857422,-3.58550596237183,6.49461412429810,-2.07252478599548,-6.01290798187256,9.67271804809570,-56.05849838256836
231,610099300,79.47451019287109,57.64159393310547,82.49737548828125,-3.55315256118774,6.98421955108643,-1.48331868648529,-14.26584148406982,15.51895809173584,-56.29463195800781
232,610107633,80.04669952392578,57.99960327148438,83.10835266113281,-3.87000942230225,7.27511358261108,-1.23075568675995,-18.49394989013672,13.33995056152344,-57.13451004028320
233,610115966,80.54499053955078,58.32560729980469,83.69412231445312,-3.47161483764648,8.52330684661865,-1.92391014099121,-24.30189323425293,11.12402915954590,-54.68027496337891
234,610124299,80.28129577636719,58.69811248779297,83.68656158447266,-3.79969382286072,9.36071777343750,-1.52736866474152,-31.82537269592285,7.39430046081543,-47.31964492797852
235,610132632,79.86019134521484,58.97826004028320,83.50825500488281,-4.55917835235596,9.36091041564941,-1.62134683132172,-33.14535903930664,-4.64909696578979,-38.09088897705078
236,610140965,80.00797271728516,59.05324172973633,83.85234832763672,-4.02895212173462,10.04139232635498,-1.23889374732971,-41.25904083251953,-8.97962760925293,-29.01771354675293
237,610149298,80.06604766845703,59.03346252441406,84.19306182861328,-4.53218889236450,9.65722465515137,-0.76110970973969,-51.31132125854492,-10.32461357116699,-18.95379257202148
238,610157631,79.30811309814453,59.06772994995117,83.84055328369141,-5.45012712478638,8.82778358459473,-0.04306911677122,-55.65370178222656,-20.28062057495117,-11.17419242858887
239,610165964,78.42897033691406,59.06792068481445,83.37867736816406,-5.74179363250732,7.85124111175537,0.22709551453590,-58.89764404296875,-27.52031898498535,-8.65510940551758
240,610174297,78.10982513427734,58.93844223022461,83.40125274658203,-5.67124700546265,6.83899545669556,0.17602434754372,-62.71585464477539,-29.91986274719238,-9.88923835754395
241,610182630,77.66835784912109,58.84813308715820,83.39336395263672,-5.34726381301880,5.84962177276611,0.11262319982052,-71.59603881835938,-26.81314849853516,-12.75703334808350
242,610190963,76.67886352539062,58.90971374511719,82.99938964843750,-5.13466310501099,4.52284431457520,-0.07103454321623,-79.26155090332031,-21.82038688659668,-15.92011070251465
243,610199296,75.73529815673828,58.99955749511719,82.69779205322266,-4.85004806518555,3.20492935180664,-0.56802111864090,-83.19032287597656,-15.15545272827148,-18.11701583862305
244,610207629,75.34171295166016,59.01424026489258,82.89299774169922,-4.59322452545166,2.40386247634888,-1.00119686126709,-83.50435638427734,-7.05453968048096,-19.27639961242676
245,610215962,74.97724151611328,59.07088470458984,83.12248992919922,-4.63298463821411,1.80513286590576,-1.37060678005219,-80.31965637207031,0.45681986212730,-19.88086318969727
246,610224295,74.38770294189453,59.22632598876953,83.16347503662109,-4.85038328170776,1.75839626789093,-1.56317663192749,-75.97454833984375,7.71680402755737,-20.63114929199219
247,610232628,73.88369750976562,59.37442016601562,83.24817657470703,-5.69231653213501,2.05588412284851,-1.46711361408234,-70.20454406738281,10.23123073577881,-18.92752075195312
248,610240961,73.65476226806641,59.43270874023438,83.52652740478516,-6.43047475814819,2.00355195999146,-1.60120308399200,-66.39291381835938,6.93028020858765,-15.94077682495117
249,610249294,73.36791992187500,59.47647476196289,83.71917724609375,-6.56128597259521,1.80466628074646,-1.93330299854279,-62.29185867309570,4.12914419174194,-12.87078857421875
250,610257627,72.93016815185547,59.53184127807617,83.76022338867188,-6.38500595092773,2.09206056594849,-2.25653696060181,-57.78417968750000,4.66404628753662,-8.95279312133789
251,610265960,72.54928588867188,59.56052017211914,83.83783721923828,-6.46696853637695,2.47831058502197,-2.20491290092468,-54.73282623291016,5.89586257934570,-5.16801929473877
252,610274293,72.38777160644531,59.53631591796875,84.09734344482422,-6.85097408294678,2.71984505653381,-2.29001259803772,-52.53416061401367,7.63550710678101,-1.64784479141235
253,610282626,72.22407531738281,59.51259231567383,84.35452270507812,-7.02237510681152,3.26694726943970,-1.74554085731506,-51.33712005615234,9.02216148376465,-0.10389157384634
254,610290959,71.93764495849609,59.49142837524414,84.52275848388672,-7.37033462524414,3.52057838439941,-1.27631545066833,-52.77923202514648,9.30922222137451,2.24515748023987
255,610299292,71.64607238769531,59.47825241088867,84.68553924560547,-7.69250249862671,3.38072156906128,-1.21852803230286,-52.82009506225586,9.28268623352051,1.29837608337402
256,610307625,71.46207427978516,59.46294403076172,84.94815826416016,-7.51546716690063,3.67714643478394,-1.60288274288177,-53.39844894409180,10.79655551910400,0.26144516468048
257,610315958,71.29644775390625,59.44338226318359,85.22229766845703,-7.83819007873535,3.84292984008789,-1.88964974880219,-51.67213439941406,12.14029312133789,1.85318171977997
258,610324291,71.03892517089844,59.42736053466797,85.41404724121094,-8.42999172210693,4.01215124130249,-1.92313492298126,-51.72976303100586,10.79195690155029,2.26990079879761
259,610332624,70.80611419677734,59.41840362548828,85.61804962158203,-8.18391990661621,3.92025232315063,-2.12243938446045,-50.02346420288086,11.76496696472168,1.77290642261505
260,610340957,70.68843841552734,59.39208221435547,85.95034790039062,-8.14848709106445,5.09321451187134,-2.21541762351990,-51.45120620727539,15.79348087310791,4.51422548294067
261,610349290,70.54294586181641,59.34551239013672,86.24859619140625,-8.73639965057373,5.07037258148193,-2.40968608856201,-50.90933990478516,13.44682788848877,6.58616542816162
262,610357623,70.34442138671875,59.30123138427734,86.54876708984375,-8.61471176147461,5.71191596984863,-2.37523937225342,-55.81926727294922,15.87232875823975,7.83268833160400
263,610365956,70.13023376464844,59.25363159179688,86.83226013183594,-9.09803867340088,5.80413675308228,-2.20217967033386,-55.95815658569336,14.76948356628418,7.93501996994019
264,610374289,69.95011901855469,59.20836257934570,87.12448883056641,-9.02599239349365,6.14236593246460,-2.80062246322632,-54.16410827636719,13.42226696014404,6.72302484512329
265,610382622,69.77339935302734,59.17908859252930,87.44725799560547,-9.05282878875732,6.79656839370728,-2.67977118492126,-56.72278594970703,16.05408859252930,5.82142782211304
266,610390955,69.48410034179688,59.15969848632812,87.69293212890625,-9.37087726593018,5.85388183593750,-2.96456813812256,-61.04976654052734,13.68484973907471,4.11246919631958
267,610399288,69.19136047363281,59.15048980712891,87.93394470214844,-8.95187568664551,6.07144117355347,-3.12042713165283,-60.97533416748047,13.82424259185791,2.94161295890808
268,610407621,68.96942901611328,59.15200042724609,88.22169494628906,-9.23567104339600,5.60081958770752,-3.50120615959167,-58.40727615356445,15.40172290802002,1.94752073287964
269,610415954,68.79206085205078,59.13058090209961,88.55680084228516,-9.39849662780762,6.66012907028198,-3.14362692832947,-57.85009002685547,17.20635414123535,5.75075960159302
270,610424287,68.56579589843750,59.09476852416992,88.83878326416016,-9.87958335876465,6.13438653945923,-3.09692049026489,-57.21098709106445,14.95027160644531,6.99259328842163
271,610432620,68.39768981933594,59.05806350708008,89.17315673828125,-9.60436820983887,6.68670701980591,-3.36660599708557,-56.58063888549805,16.53912353515625,7.65966606140137
272,610440953,68.24158477783203,59.00963973999023,89.54444122314453,-10.11444664001465,6.84980201721191,-3.46520161628723,-57.96078109741211,19.48416328430176,10.54156208038330
273,610449286,68.10453796386719,58.92308807373047,89.88767242431641,-10.13847160339355,6.93839550018311,-3.82530403137207,-53.67527008056641,14.85877132415771,13.57715988159180
274,610457619,67.99446868896484,58.78578567504883,90.22732543945312,-10.44826030731201,7.68642997741699,-3.54147911071777,-49.11457824707031,13.72013473510742,19.83075904846191
275,610465952,67.89021301269531,58.62609100341797,90.55075073242188,-10.30547428131104,7.00185346603394,-3.40753388404846,-47.61523437500000,10.52600383758545,21.41126060485840
276,610474285,67.79039001464844,58.47324371337891,90.89759826660156,-9.95694732666016,7.18679285049438,-3.57123827934265,-48.51031112670898,13.51855087280273,21.84545326232910
277,610482618,67.78243255615234,58.34437942504883,91.33557128906250,-9.76731300354004,7.28046226501465,-3.52032613754272,-47.65082931518555,18.69999122619629,20.83527755737305
278,610490951,67.80934143066406,58.24198532104492,91.81195831298828,-9.81347942352295,7.80615139007568,-3.28327345848083,-46.42987060546875,23.49716567993164,19.39490890502930
279,610499284,67.90594482421875,58.17034530639648,92.36634826660156,-9.82287883758545,7.93414258956909,-3.25029373168945,-46.87092590332031,28.29902839660645,17.28080558776855
280,610507617,68.03199005126953,58.10886001586914,92.95307159423828,-9.97003746032715,8.15897464752197,-3.51859712600708,-45.69961929321289,32.00281524658203,17.44404983520508
281,610515950,68.22937011718750,58.03367233276367,93.57361602783203,-10.27419662475586,9.29619789123535,-3.01671910285950,-41.43927764892578,32.27462005615234,19.13120841979980
282,610524283,68.33740997314453,57.94870376586914,94.16844177246094,-10.31502246856689,9.16034507751465,-3.33223414421082,-48.58946609497070,31.69676017761230,20.13886260986328
283,610532616,68.40360260009766,57.86971282958984,94.74993133544922,-9.93018150329590,8.78467655181885,-3.68435168266296,-53.10292434692383,30.06136703491211,18.51507186889648
284,610540949,68.48264312744141,57.80528640747070,95.38044738769531,-9.91320037841797,8.80421352386475,-4.20933008193970,-55.59355163574219,34.93864059448242,18.65422058105469
285,610549282,68.60641479492188,57.73506927490234,96.03107452392578,-10.14307498931885,8.74099159240723,-4.26025295257568,-53.14875030517578,34.75049209594727,19.07539176940918
286,610557615,68.71662139892578,57.67607879638672,96.72599029541016,-10.30063629150391,9.38971710205078,-4.70075416564941,-58.29571151733398,39.24020385742188,19.47176361083984
287,610565948,68.86244964599609,57.62232971191406,97.47664642333984,-10.14594745635986,8.35770988464355,-4.90850400924683,-60.59441375732422,41.65160369873047,19.41879844665527
288,610574281,69.00383758544922,57.56498336791992,98.21100616455078,-10.14054012298584,8.60975837707520,-4.54774284362793,-58.46282577514648,41.91107559204102,20.06343269348145
289,610582614,69.25662994384766,57.50043487548828,99.01936340332031,-10.43681430816650,9.18054389953613,-4.02974271774292,-53.52811050415039,44.90102767944336,21.73207664489746
290,610590947,69.43576049804688,57.44868087768555,99.79460144042969,-10.66665554046631,9.43346881866455,-3.34596419334412,-57.97679901123047,44.92578125000000,20.11970901489258
291,610599280,69.58121490478516,57.38664245605469,100.55464172363281,-10.09195423126221,9.05133628845215,-3.51513361930847,-61.44038772583008,42.40245056152344,20.07512092590332
292,610607613,69.67352294921875,57.32603836059570,101.27629089355469,-9.86308383941650,9.21018123626709,-3.40407371520996,-62.87637329101562,41.56527709960938,19.74270248413086
293,610615946,69.74045562744141,57.24315643310547,101.98103332519531,-9.84084796905518,9.44698429107666,-3.86695146560669,-65.17275238037109,38.42088317871094,21.04649925231934
294,610624279,69.73247528076172,57.17879104614258,102.61459350585938,-9.39760398864746,8.80230617523193,-2.99462962150574,-65.90586853027344,36.25441360473633,18.16615676879883
295,610632612,69.77903747558594,57.15034866333008,103.34622955322266,-8.70905876159668,8.51215171813965,-3.76959252357483,-70.25628662109375,42.49295806884766,15.50104999542236
296,610640945,69.81535339355469,57.11685562133789,104.04299163818359,-8.66956329345703,9.01869487762451,-3.19848942756653,-66.90870666503906,41.50040817260742,16.10584831237793
297,610649278,69.89064025878906,57.08317947387695,104.75078582763672,-8.49979686737061,8.72076988220215,-2.25003528594971,-64.36325836181641,40.92977905273438,15.45846462249756
298,610657611,69.91583251953125,57.13381576538086,105.51978302001953,-7.81016778945923,8.42505455017090,-3.68078851699829,-75.50424194335938,49.45346832275391,8.17611026763916
299,610665944,70.04930877685547,57.12277984619141,106.26158905029297,-7.79549694061279,7.94173812866211,-2.90903925895691,-60.83013153076172,43.97055816650391,13.50562381744385
300,610674277,70.12575531005859,57.03417205810547,106.88169097900391,-8.22095108032227,8.21473884582520,-1.82695126533508,-54.32953262329102,34.70227813720703,20.43306922912598
301,610682610,70.17621612548828,57.01475524902344,107.55709075927734,-7.87483739852905,7.37628459930420,-2.18261384963989,-64.00267028808594,39.77897262573242,12.87699604034424
302,610690943,70.25130462646484,57.05905914306641,108.25389862060547,-8.07093620300293,6.28811073303223,-2.61536908149719,-62.18896865844727,44.90724945068359,7.05884552001953
303,610699276,70.42098236083984,57.11231613159180,108.95406341552734,-7.78558063507080,5.97380208969116,-1.45324862003326,-52.18571090698242,44.26837921142578,5.08640623092651
304,610707609,70.59048461914062,57.21807861328125,109.64746093750000,-7.50380945205688,5.95352029800415,-1.79173743724823,-50.61626434326172,47.06225967407227,-0.24861274659634
305,610715942,70.81152343750000,57.31772613525391,110.29573822021484,-7.29160642623901,6.01798200607300,-0.71950799226761,-40.85461807250977,42.85359954833984,-1.58063340187073
306,610724275,70.94799804687500,57.42729568481445,110.83383941650391,-7.04986047744751,5.69879055023193,-0.59479844570160,-39.04741668701172,37.49425506591797,-4.35899114608765
307,610732608,71.10802459716797,57.55370330810547,111.33052062988281,-7.05048322677612,5.28087806701660,-0.47925552725792,-32.91594696044922,34.52863693237305,-8.06281375885010
308,610740941,71.23731231689453,57.67554473876953,111.73558807373047,-7.42509984970093,5.26685571670532,-0.63274854421616,-26.57802009582520,29.65251159667969,-8.77909851074219
309,610749274,71.40330505371094,57.78089523315430,112.12200927734375,-7.33477783203125,5.26384973526001,-0.74277192354202,-21.06003570556641,26.89420700073242,-8.10574913024902
310,610757607,71.57643890380859,57.87942504882812,112.49936676025391,-7.78804111480713,5.39047813415527,-1.58312797546387,-18.59741401672363,26.90559005737305,-6.89909839630127
311,610765940,71.85808563232422,57.96682739257812,112.95747375488281,-7.75958013534546,5.56278610229492,-1.84889006614685,-14.50069332122803,30.45385742187500,-4.78643465042114
312,610774273,72.24071502685547,58.02862548828125,113.49095153808594,-8.08511734008789,6.18896484375000,-2.21203160285950,-9.41726303100586,34.85096359252930,0.05846456065774
313,610782606,72.72187805175781,58.10078811645508,114.10136413574219,-7.44126939773560,5.55053091049194,-2.60515928268433,-6.10610914230347,39.01676559448242,-0.52319705486298
314,610790939,73.32953643798828,58.14649581909180,114.82911682128906,-8.11159610748291,6.90301275253296,-2.72780656814575,-2.28625369071960,45.99708557128906,4.86933898925781
315,610799272,74.01863861083984,58.21620178222656,115.61579132080078,-7.55165624618530,6.40643453598022,-2.45200157165527,0.80614566802979,49.57762145996094,2.06449866294861
316,610807605,74.71817016601562,58.28178024291992,116.40969848632812,-7.81393766403198,6.73879146575928,-2.79041528701782,1.88658237457275,50.68575668334961,2.58659529685974
317,610815938,75.50836181640625,58.35042953491211,117.28631591796875,-7.91298294067383,7.39816999435425,-2.22633552551270,3.65481495857239,54.97250747680664,2.34249186515808
318,610824271,76.21932983398438,58.41096496582031,118.05648803710938,-7.54206466674805,7.00848388671875,-2.24986410140991,5.56820058822632,49.04510116577148,1.44878244400024
319,610832604,76.89862823486328,58.43742752075195,118.76002502441406,-7.84193325042725,6.98192787170410,-2.78549480438232,7.94586992263794,43.21224975585938,3.29347109794617
320,610840937,77.56065368652344,58.43142318725586,119.40554809570312,-7.72113800048828,7.44353342056274,-2.49756455421448,12.39480972290039,39.67098999023438,6.32305002212524
321,610849270,78.10363769531250,58.39194488525391,119.88307189941406,-7.63248586654663,6.57218742370605,-2.43338274955750,15.30199718475342,28.63081359863281,7.61292982101440
322,610857603,78.59218597412109,58.32302093505859,120.26889801025391,-7.88434362411499,6.41673707962036,-2.87680983543396,17.56747055053711,21.58954811096191,9.10882472991943
323,610865936,79.05723571777344,58.26498413085938,120.60794830322266,-7.55326080322266,5.82594394683838,-2.78438544273376,19.56284713745117,19.10347938537598,7.10240936279297
324,610874269,79.49619293212891,58.20951080322266,120.90079498291016,-7.80920982360840,5.61953592300415,-3.32501506805420,21.74663925170898,17.21698951721191,6.64004611968994
325,610882602,79.93886566162109,58.15358352661133,121.16228485107422,-7.60084009170532,5.69015264511108,-3.24854874610901,25.41534423828125,15.36551666259766,6.21326208114624
326,610890935,80.40477752685547,58.10259628295898,121.43551635742188,-7.48347473144531,5.86490774154663,-3.44805622100830,26.42132186889648,15.47832202911377,5.15085983276367
327,610899268,80.91400146484375,58.04648590087891,121.75805664062500,-7.51367187500000,6.68507862091064,-3.19650673866272,26.62181091308594,18.54678726196289,6.16667222976685
328,610907601,81.36524963378906,58.01432418823242,122.03439331054688,-6.98106431961060,6.35842704772949,-3.10095834732056,24.96996688842773,17.02936935424805,3.17313241958618
329,610915934,81.79228210449219,57.94865036010742,122.27426910400391,-7.63920307159424,7.16598367691040,-3.03202629089355,25.78995704650879,14.22388935089111,6.68932962417603
330,610924267,82.18257141113281,57.89033508300781,122.46591949462891,-7.11307859420776,6.79733037948608,-2.87793922424316,25.70013999938965,10.55069065093994,4.83738040924072
331,610932600,82.53837585449219,57.82278442382812,122.64703369140625,-7.16408824920654,6.86882686614990,-3.66175913810730,22.64546775817871,9.81506061553955,5.76093912124634
332,610940933,82.93215942382812,57.74490737915039,122.90894317626953,-7.33402299880981,7.67990255355835,-3.77161502838135,19.61122894287109,15.71292018890381,8.04478263854980
333,610949266,83.30017852783203,57.67704772949219,123.17381286621094,-6.65905237197876,7.21946954727173,-3.45622849464417,16.24270057678223,16.15999221801758,6.77644157409668
334,610957599,83.61545562744141,57.56550598144531,123.36284637451172,-6.85029697418213,6.87430572509766,-4.07957983016968,17.00090408325195,9.94658851623535,10.85456180572510
335,610965932,83.99858093261719,57.40999984741211,123.60895538330078,-7.23408985137939,7.65527772903442,-3.85947966575623,19.38475418090820,13.15254688262939,16.41275405883789
336,610974265,84.37768554687500,57.26129531860352,123.88993072509766,-7.07288599014282,7.66025066375732,-3.24718451499939,16.05341148376465,16.56646728515625,16.25376701354980
337,610982598,84.66235351562500,57.09366989135742,124.06392669677734,-7.22913074493408,7.08460664749146,-3.70172882080078,15.56149005889893,9.62151908874512,17.75970458984375
338,610990931,84.94754028320312,56.89020919799805,124.21267700195312,-7.72579240798950,7.69298458099365,-3.71317124366760,17.53604507446289,6.84247684478760,21.31494140625000
339,610999264,85.22757720947266,56.70864868164062,124.38972473144531,-7.86818504333496,8.19488620758057,-2.75570392608643,14.10903358459473,9.07567977905273,18.81316757202148
340,611007597,85.35803985595703,56.58575057983398,124.47994232177734,-7.12308073043823,7.00128173828125,-3.39301943778992,5.55431985855103,4.98873186111450,11.84225654602051
341,611015930,85.44258880615234,56.45197296142578,124.49432373046875,-7.35901403427124,6.74711704254150,-4.27091693878174,7.65398263931274,-0.06595666706562,12.73436355590820
342,611024263,85.63520050048828,56.31443405151367,124.60094451904297,-7.42259550094604,7.12437772750854,-4.71495056152344,10.70617675781250,5.13945865631104,13.09808540344238
343,611032596,85.88511657714844,56.18514251708984,124.78340148925781,-7.56858873367310,7.20962572097778,-4.45929288864136,10.02534961700439,10.29360771179199,12.46523475646973
344,611040929,86.07070159912109,56.05630111694336,124.89973449707031,-7.63692760467529,6.98572683334351,-4.27407026290894,9.62248897552490,6.93952608108521,12.62430000305176
345,611049262,86.25393676757812,55.91601181030273,124.98250579833984,-7.75434350967407,6.91480636596680,-4.28016948699951,12.69922065734863,4.68393611907959,13.82273864746094
346,611057595,86.50005340576172,55.73989105224609,125.09201812744141,-8.47130107879639,7.88523340225220,-3.54023098945618,16.85201263427734,5.31087112426758,17.65965652465820
347,611065928,86.64311981201172,55.62817764282227,125.12915039062500,-8.16917991638184,7.03059530258179,-3.56251668930054,11.67324066162109,0.96093100309372,9.63662815093994
348,611074261,86.73523712158203,55.52786254882812,125.06229400634766,-8.01015853881836,6.72369146347046,-4.56396770477295,16.60915946960449,-4.96488571166992,8.40916919708252
349,611082594,86.86310577392578,55.44462966918945,125.04390716552734,-8.28573131561279,7.37327909469604,-4.08274221420288,16.10673332214355,-1.54113185405731,6.55633640289307
350,611090927,86.95045471191406,55.43048858642578,125.05451202392578,-8.08350849151611,6.01543474197388,-4.47702169418335,7.58441448211670,-0.14554010331631,-2.14099168777466
351,611099260,87.04275512695312,55.43472290039062,125.02199554443359,-7.45689344406128,5.13486766815186,-5.48250007629395,12.43613433837891,-2.99361276626587,-4.47083711624146
352,611107593,87.18708038330078,55.42414474487305,125.01815795898438,-7.68624639511108,5.77112531661987,-4.58034896850586,16.63533210754395,-0.06979878991842,-2.09022426605225
353,611115926,87.34973907470703,55.44486618041992,125.08221435546875,-7.61814880371094,4.98851537704468,-4.68234443664551,12.12961101531982,4.73552227020264,-5.62224864959717
354,611124259,87.56113433837891,55.43380355834961,125.12009429931641,-7.72457361221313,5.15236377716064,-4.78140258789062,19.71967506408691,1.64921152591705,-2.36042904853821
355,611132592,87.75133514404297,55.42628479003906,125.14083862304688,-7.46948194503784,4.95143842697144,-4.34267616271973,18.85992050170898,0.46443745493889,-2.77926039695740
356,611140925,87.94307708740234,55.40893173217773,125.12339782714844,-7.03564453125000,4.56231546401978,-4.83876705169678,23.66683387756348,-1.01714181900024,-1.31191062927246
357,611149258,88.17674255371094,55.34775924682617,125.10390472412109,-7.08209371566772,4.98362112045288,-4.23042678833008,28.90408325195312,-1.32110631465912,3.94519710540771
358,611157591,88.41666412353516,55.26685333251953,125.08793640136719,-6.84683084487915,4.40865278244019,-4.51239633560181,28.42491912841797,-2.33924770355225,5.99072551727295
359,611165924,88.67680358886719,55.15390777587891,125.04590606689453,-6.83892774581909,4.50176858901978,-4.42449617385864,33.39781570434570,-4.19756269454956,9.83781147003174
360,611174257,88.94691467285156,55.02782058715820,125.02738189697266,-6.66898059844971,4.60533428192139,-4.59068632125854,33.16694259643555,-1.34195661544800,11.75408935546875
361,611182590,89.25077819824219,54.89496231079102,125.04896545410156,-6.80488348007202,4.59369897842407,-4.77132654190063,33.27990722656250,1.48843193054199,12.61721515655518
362,611190923,89.59104919433594,54.75654983520508,125.09021759033203,-6.85047674179077,4.67907094955444,-5.07252264022827,34.79994201660156,1.66353142261505,13.05199337005615
363,611199256,89.94396209716797,54.60001373291016,125.12876892089844,-7.01071262359619,4.91961193084717,-4.75462722778320,36.56261825561523,1.55482470989227,15.24675464630127
364,611207589,90.26011657714844,54.43544006347656,125.14910888671875,-7.21742296218872,4.96962976455688,-4.36958074569702,34.88349533081055,1.69206571578979,16.40075111389160
365,611215922,90.53977966308594,54.25834274291992,125.11857604980469,-7.52826213836670,5.07255983352661,-4.25381422042847,35.46983337402344,-1.74210321903229,17.91762924194336
366,611224255,90.79736328125000,54.07891082763672,125.05446624755859,-7.66113376617432,5.28388071060181,-3.81185674667358,35.12063598632812,-5.30320453643799,18.08368682861328
367,611232588,91.02197265625000,53.91090774536133,124.97241973876953,-7.71492242813110,5.36222934722900,-3.24129581451416,32.91001510620117,-6.48291921615601,16.78683471679688
368,611240921,91.20115661621094,53.75471115112305,124.85433959960938,-7.74557876586914,5.59530019760132,-3.05055046081543,31.86750793457031,-7.76219654083252,15.55737113952637
369,611249254,91.32956695556641,53.60444641113281,124.68869781494141,-7.84625768661499,6.17834377288818,-2.88109254837036,29.45049476623535,-12.33685207366943,14.85013580322266
370,611257587,91.36078643798828,53.45877456665039,124.44208526611328,-7.63750076293945,6.22297239303589,-3.21719956398010,26.47063636779785,-16.93942832946777,14.54655838012695
371,611265920,91.39339447021484,53.31797790527344,124.18546295166016,-7.26911544799805,6.08059883117676,-3.86160778999329,26.69051170349121,-18.86014175415039,13.90719985961914
372,611274253,91.46385192871094,53.18546295166016,123.98387908935547,-6.78246068954468,5.88193798065186,-4.34810066223145,26.76176643371582,-13.84248447418213,12.91149425506592
373,611282586,91.60599517822266,53.06450653076172,123.90898895263672,-6.76474475860596,5.72403144836426,-4.05899810791016,22.31051063537598,-5.87829113006592,11.22878742218018
374,611290919,91.72912597656250,52.95475769042969,123.87560272216797,-7.15015602111816,5.61499691009521,-4.04484605789185,16.89764976501465,-1.79553258419037,9.89018344879150
375,611299252,91.83756256103516,52.86014556884766,123.85481262207031,-7.36188077926636,5.42948055267334,-4.28672599792480,13.07859039306641,-2.01082038879395,7.97221374511719
376,611307585,91.90762329101562,52.79052352905273,123.81473541259766,-7.37461900711060,5.24989509582520,-4.34332513809204,11.16167354583740,-2.40228247642517,5.10270214080811
377,611315918,92.00733184814453,52.74096679687500,123.81988525390625,-7.25340270996094,5.05981206893921,-4.22746181488037,9.55202198028564,-0.26951301097870,2.53031516075134
378,611324251,92.11270904541016,52.69102859497070,123.83876037597656,-7.25835418701172,4.99204444885254,-4.38680124282837,9.76369953155518,1.81250190734863,2.59596467018127
379,611332584,92.25312042236328,52.62115859985352,123.86571502685547,-7.01134157180786,5.28423595428467,-4.56865453720093,12.36595153808594,1.43960964679718,4.92947244644165
380,611340917,92.39004516601562,52.52782821655273,123.89797973632812,-6.70831489562988,5.28641939163208,-4.39063501358032,12.27715015411377,3.02851271629333,7.75095939636230
381,611349250,92.58779907226562,52.38849258422852,123.95180511474609,-6.69072771072388,5.37029457092285,-4.01317167282104,16.68866539001465,3.82160663604736,13.16291618347168
382,611357583,92.72896575927734,52.23760604858398,123.96791839599609,-7.00387811660767,5.61037778854370,-3.80674219131470,14.32723903656006,2.24243760108948,14.68855285644531
383,611365916,92.82337951660156,52.08462142944336,123.95260620117188,-7.01101064682007,5.35837030410767,-4.63641691207886,10.86969852447510,-1.04992783069611,15.02594184875488
384,611374249,92.93196105957031,51.93206405639648,123.91848754882812,-6.88783359527588,5.33366155624390,-5.05880403518677,15.17417430877686,-1.37871229648590,15.06728649139404
385,611382582,93.10893249511719,51.78794097900391,123.93544769287109,-7.19855785369873,5.40875911712646,-5.14869928359985,17.70619201660156,1.34529852867126,13.84697151184082
386,611390915,93.24457550048828,51.64265060424805,123.91479492187500,-7.68748092651367,5.64819097518921,-4.56055498123169,17.13829994201660,-0.34802073240280,14.15014171600342
387,611399248,93.33631134033203,51.51226043701172,123.85876464843750,-8.06649875640869,5.51137161254883,-4.46069955825806,14.33430862426758,-4.10878086090088,12.51958942413330
388,611407581,93.37982177734375,51.41261672973633,123.72402954101562,-7.82954740524292,5.00649785995483,-5.02667665481567,16.78289985656738,-9.13962268829346,9.18479442596436
389,611415914,93.50421142578125,51.31492996215820,123.60567474365234,-7.17671775817871,5.08244752883911,-4.95348882675171,24.06452560424805,-8.98752880096436,8.92926979064941
390,611424247,93.59841918945312,51.21253585815430,123.47684478759766,-7.49270391464233,5.50237178802490,-4.12264442443848,22.27736663818359,-8.68074607849121,9.52231597900391
391,611432580,93.64761352539062,51.13334655761719,123.31626892089844,-7.94628620147705,4.31186819076538,-5.11041975021362,18.95294189453125,-12.30213928222656,6.96821451187134
392,611440913,93.73562622070312,51.04124832153320,123.07178497314453,-7.44851541519165,5.04703521728516,-5.12442350387573,32.30459976196289,-17.46442222595215,8.87484359741211
393,611449246,93.82687377929688,50.94981765747070,122.86470794677734,-7.14566612243652,5.94135904312134,-4.34635829925537,28.27108955383301,-15.74636650085449,8.74579715728760
394,611457579,93.86510467529297,50.86087417602539,122.64622497558594,-7.68271827697754,5.43598937988281,-5.07540178298950,23.84898567199707,-15.56985664367676,8.41826629638672
395,611465912,93.91262054443359,50.75013732910156,122.36700439453125,-7.74761962890625,5.67305421829224,-4.82982683181763,29.67127037048340,-21.09788322448730,11.47399997711182
396,611474245,93.90441131591797,50.62786483764648,122.03042602539062,-7.52207231521606,6.21435356140137,-4.19864845275879,29.17635917663574,-24.31959724426270,13.04210853576660
397,611482578,93.85830688476562,50.51347351074219,121.67564392089844,-7.85838079452515,5.99635124206543,-3.86176013946533,25.34256362915039,-26.92146492004395,12.31781291961670
398,611490911,93.72368621826172,50.41967391967773,121.23146057128906,-8.01824665069580,5.14537382125854,-3.95543789863586,23.86350250244141,-32.90478897094727,10.13406944274902
399,611499244,93.56592559814453,50.35352325439453,120.73371887207031,-7.58689355850220,4.85259389877319,-3.92352151870728,25.07678031921387,-38.36182022094727,7.16632604598999
400,611507577,93.36698913574219,50.31372451782227,120.20186614990234,-7.13702535629272,4.76621103286743,-4.26343202590942,24.16168594360352,-40.17267608642578,3.88992643356323
401,611515910,93.16133117675781,50.28653335571289,119.65655517578125,-7.19197320938110,4.58705234527588,-4.70421552658081,23.66200637817383,-42.40497207641602,2.50206780433655
402,611524243,92.91945648193359,50.25385665893555,119.03339385986328,-7.25690841674805,4.28755044937134,-5.20550060272217,27.39278984069824,-47.32135009765625,3.11227869987488
403,611532576,92.68843078613281,50.20740890502930,118.33659362792969,-7.55302667617798,4.37866735458374,-4.89260101318359,34.51326751708984,-54.04625320434570,5.08991241455078
404,611540909,92.41149902343750,50.15409851074219,117.54654693603516,-7.79577302932739,4.21458673477173,-4.81250905990601,38.49190139770508,-60.16757583618164,5.75348234176636
405,611549242,92.15622711181641,50.09823989868164,116.69719696044922,-7.91032981872559,4.19724464416504,-4.75079870223999,45.53356933593750,-65.93550872802734,6.28014707565308
406,611557575,91.85586547851562,50.04589843750000,115.76406860351562,-8.00092887878418,4.34436035156250,-4.18722915649414,48.73205947875977,-71.40875244140625,5.45390844345093
407,611565908,91.55724334716797,50.01753234863281,114.81134033203125,-7.76677417755127,3.76518583297729,-4.70461082458496,49.71654510498047,-74.23516082763672,2.64021873474121
408,611574241,91.25969696044922,49.98342514038086,113.79846191406250,-7.52096509933472,4.34215688705444,-4.45182847976685,56.30955123901367,-77.81045532226562,2.67423772811890
409,611582574,90.88080596923828,49.93899154663086,112.71916961669922,-7.36718225479126,4.75801610946655,-4.55906438827515,51.60811996459961,-84.15641784667969,4.01044225692749
410,611590907,90.42472076416016,49.86603164672852,111.54370117187500,-7.01381492614746,4.38107824325562,-5.61382532119751,52.07512664794922,-90.55683135986328,6.45224952697754
411,611599240,89.97077178955078,49.75944900512695,110.32225036621094,-7.06819295883179,4.88701868057251,-4.96105718612671,55.38594055175781,-95.51792144775391,10.28664779663086
412,611607573,89.46564483642578,49.66454696655273,109.08941650390625,-7.36734724044800,4.01378202438354,-5.06503534317017,51.13454818725586,-95.52930450439453,7.58218717575073
413,611615906,89.13777160644531,49.57571792602539,107.90196990966797,-7.89031696319580,4.04110240936279,-5.07386875152588,67.05970764160156,-93.45175933837891,6.75640916824341
414,611624239,88.75399017333984,49.46908950805664,106.59404754638672,-9.06057071685791,5.40024375915527,-3.97178816795349,72.23413085937500,-101.91884613037109,7.58321237564087
415,611632572,88.35136413574219,49.36956024169922,105.22675323486328,-9.59120368957520,4.23880290985107,-5.37512969970703,74.14373779296875,-108.04350280761719,6.54590654373169
416,611640905,88.02860260009766,49.25985336303711,103.84324645996094,-9.69492626190186,5.16918945312500,-4.62996435165405,86.06378173828125,-108.40674591064453,6.40703487396240
417,611649238,87.66513824462891,49.15988922119141,102.47114562988281,-9.89703369140625,5.46115303039551,-6.22190570831299,78.85602569580078,-109.00905609130859,5.36587095260620
418,611657571,87.27842712402344,49.00056457519531,100.97752380371094,-10.21429252624512,5.10000467300415,-7.24667453765869,87.92910766601562,-117.94776153564453,10.58732032775879
419,611665904,86.91894531250000,48.80810928344727,99.44930267333984,-10.14196681976318,5.31632757186890,-7.15346384048462,93.96872711181641,-121.36993408203125,13.62945365905762
420,611674237,86.60562133789062,48.62780380249023,97.85944366455078,-9.76106739044189,5.14380741119385,-7.84811353683472,103.52056121826172,-128.03941345214844,12.06320953369141
421,611682570,86.45672607421875,48.40595245361328,96.32588958740234,-9.59750652313232,6.33622121810913,-7.38259983062744,117.64862823486328,-124.53877258300781,16.84794616699219
422,611690903,86.28616333007812,48.16748046875000,94.71799468994141,-11.25473594665527,5.64990329742432,-5.96978998184204,122.46161651611328,-129.76821899414062,17.10059928894043
423,611699236,86.21044921875000,47.95888519287109,93.16397857666016,-10.03193092346191,4.83304643630981,-6.91158437728882,128.53570556640625,-125.81615447998047,13.48962593078613
424,611707569,86.35601043701172,47.75119018554688,91.76017761230469,-10.04778289794922,5.99229907989502,-6.43099784851074,139.96093750000000,-115.70822906494141,15.36119079589844
425,611715902,86.48949432373047,47.52631378173828,90.28340911865234,-11.75567436218262,6.52956581115723,-5.07880353927612,144.47238159179688,-122.18910980224609,17.37521171569824
426,611724235,86.58423614501953,47.34125900268555,88.73727416992188,-10.77968311309814,6.09070396423340,-4.96198129653931,146.90864562988281,-126.45286560058594,11.25056838989258
427,611732568,86.72789764404297,47.21264266967773,87.39998626708984,-9.46765327453613,6.91281509399414,-4.78508663177490,134.02792358398438,-109.41510009765625,5.72576522827148
428,611740901,86.80229949951172,47.17943572998047,86.02537536621094,-9.73701763153076,4.66244125366211,-3.66047406196594,127.50286865234375,-113.43659210205078,-4.28864955902100
429,611749234,87.08911895751953,47.22869491577148,84.83387756347656,-7.23750877380371,3.53464221954346,-5.84986591339111,136.90150451660156,-97.94738769531250,-13.01589012145996
430,611757567,87.49156188964844,47.31927871704102,83.74810028076172,-8.97399616241455,3.65450763702393,-3.12082076072693,142.89425659179688,-87.63472747802734,-18.36814880371094
431,611765900,87.96000671386719,47.49362182617188,82.77784729003906,-8.89480495452881,2.99238228797913,-3.92196321487427,140.81921386718750,-77.73710632324219,-27.36481666564941
432,611774233,88.43850708007812,47.71220397949219,81.82807922363281,-10.72180366516113,4.83646059036255,-1.73104703426361,139.19998168945312,-77.17230987548828,-30.46120643615723
433,611782566,88.72940063476562,47.98147583007812,80.70162963867188,-11.06358242034912,3.71962523460388,-0.08383332192898,132.81616210937500,-91.01155090332031,-36.33930206298828
434,611790899,89.09277343750000,48.30639648437500,79.60292053222656,-9.49428749084473,2.69164109230042,1.15902066230774,140.68783569335938,-87.06702423095703,-43.98571777343750
435,611799232,89.58178710937500,48.66657638549805,78.58016967773438,-8.72131156921387,2.83151936531067,2.58567595481873,149.47212219238281,-80.67824554443359,-47.48820114135742
436,611807565,90.12397003173828,49.07783508300781,77.70552825927734,-7.39484930038452,4.35138463973999,1.44001698493958,142.01324462890625,-69.81444549560547,-51.19702911376953
437,611815898,90.57604217529297,49.41051101684570,76.71200561523438,-7.92661476135254,7.38195705413818,0.69111019372940,142.65461730957031,-78.79697418212891,-41.15375137329102
438,611824231,90.84481048583984,49.61954879760742,75.48233795166016,-8.64217662811279,11.21571826934814,4.10098123550415,143.36351013183594,-95.96089172363281,-27.22045326232910
439,611832564,91.00010681152344,49.82275390625000,74.34590148925781,-8.00002574920654,9.71148014068604,2.60695791244507,121.56024169921875,-88.39218139648438,-26.29081153869629
440,611840897,91.36183166503906,49.97758865356445,73.39048767089844,-6.83445930480957,10.38926601409912,2.70693111419678,129.39352416992188,-74.70381164550781,-18.92696762084961
441,611849230,91.72672271728516,50.09843063354492,72.57027435302734,-8.69441890716553,12.21974277496338,3.42768144607544,118.11000823974609,-63.42993927001953,-16.11965560913086
442,611857563,91.87986755371094,50.20062255859375,71.66706848144531,-10.11608600616455,11.97161388397217,3.40136504173279,100.03961181640625,-70.11076354980469,-12.17974281311035
443,611865896,92.02990722656250,50.29335021972656,70.83541107177734,-10.18103599548340,11.80290031433105,3.34150624275208,93.61118316650391,-64.01045989990234,-12.26944923400879
444,611874229,92.15971374511719,50.44555664062500,70.07584381103516,-10.00670242309570,10.48886299133301,2.69316220283508,84.38746643066406,-58.89733123779297,-18.47388458251953
445,611882562,92.32082366943359,50.64867401123047,69.38797760009766,-9.15817451477051,9.71992015838623,2.33854055404663,81.80882263183594,-53.36742782592773,-24.82712745666504
446,611890895,92.45155334472656,50.89464187622070,68.72783660888672,-8.74500560760498,8.62000465393066,1.58272302150726,75.92799377441406,-51.13726425170898,-30.72903442382812
447,611899228,92.58936309814453,51.16448974609375,68.10047149658203,-8.24850940704346,7.51682615280151,0.68640875816345,73.94745635986328,-48.57480239868164,-33.59376907348633
448,611907561,92.76136016845703,51.45484161376953,67.49523162841797,-8.48273563385010,6.48772716522217,0.49736583232880,76.15879058837891,-46.88085937500000,-35.33230209350586
449,611915894,92.98014831542969,51.74164962768555,66.90565490722656,-8.67138576507568,5.49381923675537,0.62897288799286,80.55299377441406,-45.47459793090820,-34.89598083496094
450,611924227,93.20478820800781,52.03255462646484,66.24488067626953,-9.02292156219482,4.63325452804565,1.29803669452667,88.22115325927734,-50.60781478881836,-35.54277801513672
451,611932560,93.46926879882812,52.33904266357422,65.55921173095703,-8.71109294891357,4.20622539520264,1.70529723167419,95.61830902099609,-52.35303878784180,-37.10321807861328
452,611940893,93.75344848632812,52.67084884643555,64.82807922363281,-8.21185874938965,3.91382813453674,2.45902562141418,102.62069702148438,-55.61503601074219,-39.09596633911133
453,611949226,94.12592315673828,53.03684234619141,64.24226379394531,-7.36599731445312,4.26995468139648,1.78430056571960,99.70035552978516,-45.09234237670898,-43.60372924804688
454,611957559,94.44068908691406,53.39876174926758,63.58337402343750,-7.51588535308838,4.22145986557007,1.72554469108582,99.97457885742188,-50.31285095214844,-43.09479522705078
455,611965892,94.84925842285156,53.77939224243164,63.03993606567383,-6.47865486145020,4.11146831512451,0.85984605550766,100.38626861572266,-42.13270187377930,-45.71323394775391
456,611974225,95.33376312255859,54.15244674682617,62.58565902709961,-6.42267704010010,4.02660655975342,0.21871079504490,101.25360870361328,-35.56906127929688,-44.46814346313477
457,611982558,95.87307739257812,54.51013183593750,62.17855453491211,-6.42745447158813,3.46586060523987,-0.20796650648117,103.42738342285156,-32.16733169555664,-42.70492553710938
458,611990891,96.49613189697266,54.82501220703125,61.79787826538086,-6.88485670089722,3.92850232124329,-0.20254036784172,110.90980529785156,-30.19170379638672,-38.04031372070312
459,611999224,97.11793518066406,55.09406661987305,61.30355072021484,-7.69400262832642,4.04997873306274,0.46378085017204,122.06101226806641,-37.49934387207031,-31.34115409851074
460,612007557,97.88704681396484,55.38767623901367,61.09182739257812,-6.65733528137207,4.19594764709473,-0.07458663731813,112.20568847656250,-18.58492469787598,-35.83253860473633
461,612015890,98.60711669921875,55.66960144042969,60.82662582397461,-7.42740678787231,4.11770725250244,-0.93680739402771,111.67844390869141,-22.28432464599609,-33.71397018432617
462,612024223,99.35213470458984,55.90877532958984,60.50248718261719,-6.88205814361572,4.62740802764893,-0.17389933764935,120.44631958007812,-25.93685722351074,-28.25385093688965
463,612032556,100.15064239501953,56.11446380615234,60.24751663208008,-6.68133831024170,4.96264934539795,-0.01290887407959,120.06804656982422,-20.89027976989746,-24.74645614624023
464,612040889,100.88206481933594,56.29854965209961,59.98273468017578,-6.72804117202759,4.82247161865234,-0.47760537266731,113.19828033447266,-21.00648689270020,-21.35212898254395
465,612049222,101.63597869873047,56.44085311889648,59.76445770263672,-6.28134489059448,5.20716524124146,-0.24866510927677,111.30534362792969,-17.15437126159668,-16.83016777038574
466,612057555,102.41360473632812,56.57301712036133,59.60378265380859,-6.46076345443726,5.43716764450073,-0.73615700006485,108.27084350585938,-13.56824874877930,-16.61120223999023
467,612065888,103.09339141845703,56.69082641601562,59.33312988281250,-6.54924249649048,5.16517496109009,-0.80972945690155,107.57450103759766,-20.39892005920410,-13.16071987152100
468,612074221,103.70716094970703,56.79480743408203,59.02500534057617,-6.45716238021851,5.18921327590942,-1.12785065174103,103.60016632080078,-22.20404624938965,-10.43649482727051
469,612082554,104.28225708007812,56.89672088623047,58.67993164062500,-6.63861274719238,5.23551321029663,-1.08989763259888,102.70152282714844,-24.53852462768555,-9.45307731628418
470,612090887,104.88256835937500,57.00429916381836,58.39936065673828,-6.58663463592529,5.49760150909424,-0.80074149370193,99.13535308837891,-20.87660980224609,-11.18312263488770
471,612099220,105.44622039794922,57.12294387817383,58.09372329711914,-6.93790817260742,5.62942028045654,-0.72176259756088,97.44091796875000,-22.58921623229980,-11.65440177917480
472,612107553,105.98333740234375,57.24848937988281,57.77768325805664,-6.72651767730713,5.74550199508667,-0.75769102573395,95.20233154296875,-23.72229003906250,-12.24855041503906
473,612115886,106.52929687500000,57.37527084350586,57.52064514160156,-6.31688213348389,5.81511592864990,-0.70346027612686,90.50620269775391,-19.86634826660156,-13.13874435424805
474,612124219,107.04610443115234,57.49158096313477,57.27950286865234,-6.18498992919922,5.64174556732178,-0.88942861557007,85.27796173095703,-18.79987335205078,-12.17578411102295
475,612132552,107.51635742187500,57.59602737426758,57.01613616943359,-5.96746540069580,5.37532997131348,-1.17159879207611,82.14218902587891,-19.54652786254883,-10.20572471618652
476,612140885,107.97475433349609,57.66242980957031,56.73377227783203,-6.08551311492920,5.45551061630249,-1.44813394546509,82.50083160400391,-19.56499099731445,-5.37620496749878
477,612149218,108.37265777587891,57.70138549804688,56.38028717041016,-6.31308937072754,5.46601533889771,-1.16677427291870,82.63840484619141,-22.64917755126953,-0.70705997943878
478,612157551,108.75862884521484,57.71509933471680,56.02946472167969,-6.47425603866577,5.36287164688110,-1.25264704227448,80.77902984619141,-21.70000267028809,2.28935050964355
479,612165884,109.10852050781250,57.71078872680664,55.63971710205078,-6.50869750976562,5.60417509078979,-1.05102360248566,80.56522369384766,-23.12636756896973,5.19568824768066
480,612174217,109.43264007568359,57.69678115844727,55.24076843261719,-6.40341711044312,5.57940292358398,-1.05035638809204,78.23894500732422,-23.44661331176758,6.71889686584473
481,612182550,109.76828765869141,57.67661666870117,54.85769653320312,-6.39523220062256,5.50987291336060,-1.15194022655487,78.17923736572266,-22.00497627258301,7.06795692443848
482,612190883,110.11969757080078,57.64435958862305,54.45434570312500,-6.74595451354980,5.39419174194336,-1.08699834346771,81.94116210937500,-22.87580871582031,9.16054058074951
483,612199216,110.44968414306641,57.61793899536133,54.00468444824219,-7.10794925689697,5.09755134582520,-1.21993792057037,84.22493743896484,-25.66996955871582,9.48354339599609
484,612207549,110.80690765380859,57.59253692626953,53.55209732055664,-7.50342798233032,5.04621648788452,-1.39215910434723,87.60276031494141,-26.01275444030762,9.79450798034668
485,612215882,111.22286224365234,57.59223937988281,53.18088150024414,-7.59809303283691,4.80530214309692,-1.28924357891083,86.58215332031250,-21.95954704284668,5.07707214355469
486,612224215,111.68283081054688,57.59251022338867,52.85008621215820,-7.99477958679199,4.92448663711548,-0.99289292097092,87.58588409423828,-19.66795158386230,4.43942642211914
487,612232548,112.13708496093750,57.62390899658203,52.52215576171875,-7.94265890121460,5.02489185333252,-1.11735105514526,86.80705261230469,-20.64624214172363,0.85727602243423
488,612240881,112.61976623535156,57.67510986328125,52.26180267333984,-7.87215518951416,5.07841491699219,-1.57656550407410,83.19035339355469,-17.64998626708984,-2.62826776504517
489,612249214,113.10434722900391,57.73453140258789,51.96933746337891,-7.96008014678955,4.94642686843872,-1.95694148540497,86.88112640380859,-19.73109054565430,-2.80631518363953
490,612257547,113.60193634033203,57.82147979736328,51.66731262207031,-7.38446474075317,4.80635690689087,-2.69473147392273,89.25061035156250,-21.73127937316895,-5.22867298126221
491,612265880,114.10548400878906,57.89310836791992,51.35481643676758,-7.07478904724121,4.39834880828857,-3.42959094047546,91.22427368164062,-21.43487358093262,-3.31960463523865
492,612274213,114.64251708984375,57.95432662963867,51.04788589477539,-6.89717817306519,4.32151651382446,-4.10859823226929,94.53369140625000,-20.70072364807129,-1.92679548263550
493,612282546,115.20278167724609,57.97476196289062,50.74879455566406,-6.81584310531616,4.58253192901611,-4.25669097900391,96.64883422851562,-18.09164428710938,2.26704621315002
494,612290879,115.76119232177734,57.97888946533203,50.45087051391602,-7.09243631362915,4.99014759063721,-3.99515008926392,96.19786834716797,-17.17873954772949,4.39826965332031
495,612299212,116.27839660644531,57.94296646118164,50.10092926025391,-7.68559265136719,5.59922456741333,-3.05913496017456,96.60487365722656,-18.01353073120117,10.09493923187256
496,612307545,116.71025848388672,57.89612579345703,49.60037231445312,-8.35193729400635,6.01738357543945,-2.39614033699036,101.59705352783203,-25.89511108398438,15.95521450042725
497,612315878,117.00923919677734,57.84893035888672,48.92676925659180,-8.61680507659912,6.78736495971680,-2.23693370819092,103.27527618408203,-35.69698715209961,20.89626693725586
498,612324211,117.18240356445312,57.81774902343750,48.11045074462891,-8.75781726837158,7.08744430541992,-2.66319346427917,102.57737731933594,-44.57654190063477,23.77374076843262
499,612332544,117.30190277099609,57.79670715332031,47.20485687255859,-8.75263309478760,6.76207399368286,-2.96527981758118,105.26711273193359,-50.22975158691406,25.11453437805176
500,612340877,117.42767333984375,57.79113388061523,46.29918289184570,-8.77626323699951,6.33211803436279,-2.82652544975281,105.93041229248047,-50.98461532592773,23.90770721435547
501,612349210,117.53791046142578,57.79029083251953,45.38348770141602,-8.83561706542969,5.77186918258667,-2.87450122833252,105.16473388671875,-51.84458160400391,23.44770812988281
502,612357543,117.61733245849609,57.82499694824219,44.43189239501953,-8.81445980072021,5.12966346740723,-3.36591291427612,105.04736328125000,-55.70829391479492,21.16020393371582
503,612365876,117.67314910888672,57.85979843139648,43.42130661010742,-9.01364803314209,4.83245515823364,-3.39741969108582,108.31424713134766,-59.07121276855469,22.58500862121582
504,612374209,117.76897430419922,57.90241622924805,42.41085815429688,-9.18716049194336,4.10281229019165,-3.82994484901428,113.07593536376953,-59.29875946044922,22.15071105957031
505,612382542,117.86704254150391,57.92667007446289,41.36511611938477,-9.33251094818115,4.76940393447876,-4.25608730316162,116.99559783935547,-60.30835723876953,24.90974998474121
506,612390875,117.99310302734375,57.95219421386719,40.33057785034180,-9.56495761871338,4.75459241867065,-4.48311424255371,119.22092437744141,-59.50904083251953,24.84946441650391
507,612399208,118.15574645996094,57.97218704223633,39.28920364379883,-9.37872886657715,5.64013147354126,-4.75473022460938,124.30377197265625,-59.66947555541992,25.49649047851562
508,612407541,118.34464263916016,57.97428512573242,38.25288009643555,-9.33498191833496,7.04170513153076,-4.37210273742676,126.98093414306641,-58.06511306762695,27.68340873718262
509,612415874,118.47303771972656,57.97121810913086,37.10778808593750,-9.38556861877441,7.54456663131714,-4.56417894363403,130.72860717773438,-64.03825378417969,31.38734626770020
510,612424207,118.53327941894531,57.95882034301758,35.83874893188477,-9.24597454071045,7.29799079895020,-4.63830375671387,135.20664978027344,-70.12597656250000,36.54543685913086
511,612432540,118.58111572265625,57.94325637817383,34.48866653442383,-8.91237163543701,7.25554704666138,-4.18125915527344,141.86990356445312,-74.79484558105469,39.07572555541992
512,612440873,118.62162017822266,57.93230056762695,33.10599899291992,-9.02167510986328,6.70385837554932,-4.07820701599121,144.35716247558594,-76.55197906494141,40.00512695312500
513,612449206,118.65161895751953,57.95373916625977,31.67483520507812,-8.87270736694336,6.82353830337524,-3.81307005882263,147.95672607421875,-81.46047973632812,37.72776794433594
514,612457539,118.69860839843750,58.00114822387695,30.25303649902344,-8.96586608886719,6.42840909957886,-4.01613473892212,149.17816162109375,-81.95634460449219,35.10731506347656
515,612465872,118.79975128173828,58.08531570434570,28.87541389465332,-8.93028068542480,6.16054677963257,-3.97933506965637,151.19023132324219,-81.83544158935547,29.50280761718750
516,612474205,118.94121551513672,58.17847442626953,27.55699157714844,-8.96734714508057,6.14719343185425,-3.80239629745483,150.22300720214844,-78.39565277099609,27.22640609741211
517,612482538,119.15077972412109,58.29201126098633,26.29458808898926,-8.92097187042236,6.04397249221802,-3.99985837936401,152.82774353027344,-76.18404388427734,23.49650001525879
518,612490871,119.39115905761719,58.40909957885742,25.07471275329590,-8.98216629028320,6.42263126373291,-4.43054866790771,152.23187255859375,-74.18263244628906,21.57921409606934
519,612499204,119.65055847167969,58.54607391357422,23.87034416198730,-9.01952075958252,5.80729818344116,-5.28629779815674,153.07978820800781,-74.20636749267578,19.18481254577637
520,612507537,119.95658111572266,58.69305801391602,22.67915344238281,-8.67199039459229,6.03253889083862,-6.02419233322144,157.64305114746094,-73.20320892333984,18.37576103210449
521,612515870,120.31842803955078,58.82743072509766,21.54431533813477,-8.85519886016846,5.78094816207886,-6.84576463699341,158.74031066894531,-69.02460479736328,18.20144844055176
522,612524203,120.71877288818359,58.93117904663086,20.44603919982910,-8.87780475616455,6.39719343185425,-6.63767719268799,159.56767272949219,-65.46094512939453,20.13974952697754
523,612532536,121.15406036376953,59.02756881713867,19.36421203613281,-8.95706272125244,6.70650339126587,-6.60052490234375,162.12301635742188,-63.92357635498047,20.72603797912598
524,612540869,121.59423828125000,59.11793899536133,18.27997398376465,-9.19661140441895,7.04448699951172,-6.06763315200806,163.32035827636719,-62.58391189575195,22.23840141296387
525,612549202,121.99529266357422,59.18618392944336,17.14656066894531,-9.26803112030029,7.49268865585327,-5.57430553436279,163.77995300292969,-63.43668746948242,26.47005081176758
526,612557535,122.36505126953125,59.25130462646484,15.91315746307373,-9.05634498596191,7.77266263961792,-5.49696636199951,170.12960815429688,-68.98592376708984,29.98079109191895
527,612565868,122.60573577880859,59.29568862915039,14.54334735870361,-9.20956039428711,7.68743562698364,-5.23130369186401,168.77490234375000,-74.48963165283203,36.79904556274414
528,612574201,122.77315521240234,59.34947586059570,13.06101417541504,-8.79209709167480,7.39753866195679,-4.70614624023438,171.96736145019531,-79.70966339111328,40.26414108276367
529,612582534,122.91764068603516,59.40594100952148,11.57213211059570,-8.61166381835938,7.26278781890869,-4.78641653060913,169.97396850585938,-79.98409271240234,40.35016250610352
530,612590867,123.07898712158203,59.45752716064453,10.13874626159668,-8.36995983123779,6.92312812805176,-4.65777492523193,166.05722045898438,-77.58068847656250,38.62316131591797
531,612599200,123.29051971435547,59.52451324462891,8.76788043975830,-8.03758049011230,6.31772613525391,-4.96896791458130,165.71478271484375,-75.18762207031250,35.09271621704102
532,612607533,123.49597167968750,59.60090637207031,7.41598367691040,-8.39426708221436,6.31017684936523,-4.89012050628662,163.41680908203125,-73.50056457519531,34.25781250000000
533,612615866,123.79434204101562,59.73591995239258,6.15497112274170,-8.94354438781738,4.96923160552979,-5.72692823410034,165.30200195312500,-72.43639373779297,25.53432273864746
534,612624199,124.14758300781250,59.87199020385742,4.93345785140991,-9.20374488830566,5.61268377304077,-6.00861883163452,167.67057800292969,-71.22865295410156,23.78890228271484
535,612632532,124.55893707275391,60.06057357788086,3.76850056648254,-9.48821449279785,4.86454725265503,-6.14265203475952,168.93685913085938,-71.57003784179688,16.95863914489746
536,612640865,124.96115112304688,60.27604293823242,2.57595896720886,-9.37355327606201,5.30813407897949,-6.07939243316650,171.30235290527344,-73.06068420410156,16.02319335937500
537,612649198,125.37178802490234,60.50847625732422,1.38408696651459,-9.73920631408691,5.16543006896973,-5.83554267883301,172.51876831054688,-73.67139434814453,14.57613468170166
538,612657531,125.82907867431641,60.79407501220703,0.19841846823692,-9.82327270507812,5.14532375335693,-5.90973901748657,177.38772583007812,-77.77889251708984,8.98300361633301
539,612665864,126.29222106933594,61.09483337402344,-0.97113573551178,-10.25993156433105,5.47811269760132,-6.17755889892578,176.74661254882812,-77.53343963623047,7.23792314529419
540,612674197,126.79296875000000,61.48722076416016,-2.11568975448608,-10.03162288665771,5.45249795913696,-6.39148855209351,179.44824218750000,-80.87621307373047,-1.87345063686371
541,612682530,127.26228332519531,61.88726425170898,-3.23054838180542,-11.07813262939453,5.59207868576050,-6.71672773361206,172.98944091796875,-79.40124511718750,-3.43629765510559
542,612690863,127.71881866455078,62.38309478759766,-4.40729665756226,-11.25967693328857,5.70086669921875,-7.28442573547363,178.07928466796875,-89.84326934814453,-10.65524196624756
543,612699196,128.10578918457031,62.91094589233398,-5.65487480163574,-11.86709976196289,5.32291126251221,-7.80199050903320,177.83677673339844,-94.53588104248047,-11.30018997192383
544,612707529,128.42852783203125,63.51282882690430,-7.03410148620605,-12.03142166137695,5.60338592529297,-7.99113321304321,185.37426757812500,-103.12471771240234,-13.83852481842041
545,612715862,128.63563537597656,64.12911224365234,-8.55321502685547,-13.02342796325684,4.99027967453003,-8.24489212036133,187.34286499023438,-108.81405639648438,-11.07365989685059
546,612724195,128.71932983398438,64.79354095458984,-10.26119995117188,-13.64650630950928,4.95258188247681,-8.09267807006836,193.39468383789062,-120.27399444580078,-10.48455429077148
547,612732528,128.57922363281250,65.49597167968750,-12.27198028564453,-13.89221477508545,4.71251010894775,-7.92202949523926,200.50869750976562,-133.42608642578125,-5.87901020050049
548,612740861,128.11596679687500,66.25415039062500,-14.71469020843506,-13.87514877319336,5.30472469329834,-7.75061225891113,210.84280395507812,-150.22265625000000,-0.34172683954239
549,612749194,127.39043426513672,67.01321411132812,-17.47383880615234,-13.86226749420166,5.54489183425903,-7.25481986999512,215.78729248046875,-159.41154479980469,5.06597185134888
550,612757527,126.36139678955078,67.77439880371094,-20.55789375305176,-13.61179542541504,5.09252071380615,-7.90014076232910,216.51472473144531,-170.23753356933594,9.11328315734863
551,612765860,125.01911163330078,68.54802703857422,-23.99977493286133,-11.96101093292236,4.86932945251465,-7.81093168258667,220.67131042480469,-180.67692565917969,11.09805965423584
552,612774193,123.26235198974609,69.33121490478516,-27.91013145446777,-9.99925231933594,5.04767751693726,-8.66981887817383,226.01470947265625,-192.08882141113281,13.54342365264893
553,612782526,121.20652008056641,70.08498382568359,-32.17329025268555,-8.22687530517578,4.50025367736816,-8.57604503631592,232.05844116210938,-198.09422302246094,14.82428073883057
554,612790859,118.95191192626953,70.79524993896484,-36.69220352172852,-6.23495626449585,4.17823934555054,-8.42856979370117,238.77722167968750,-201.65216064453125,14.27799034118652
555,612799192,116.48162078857422,71.44457244873047,-41.44937896728516,-4.53228569030762,3.40271592140198,-8.57735443115234,242.07559204101562,-201.83970642089844,13.97645282745361
556,612807525,113.95762634277344,72.02279663085938,-46.28680038452148,-3.16482663154602,2.22983002662659,-7.51180267333984,247.28536987304688,-193.92752075195312,11.43844318389893
557,612815858,111.55910491943359,72.56064605712891,-51.06065368652344,-2.15000844001770,0.82200825214386,-6.33441019058228,256.82720947265625,-185.42219543457031,4.58612203598022
558,612824191,109.25733184814453,73.04926300048828,-55.80683517456055,-1.29612982273102,0.18841347098351,-5.11104345321655,266.24859619140625,-180.51954650878906,1.02020549774170
559,612832524,106.85153198242188,73.47844696044922,-60.71979522705078,-0.78194570541382,-0.92042732238770,-4.16029167175293,274.25006103515625,-179.79226684570312,0.99733346700668
560,612840857,104.30395507812500,73.83826446533203,-65.84722900390625,0.14045527577400,-2.08865213394165,-3.87823510169983,283.66110229492188,-178.11422729492188,1.57684004306793
561,612849190,101.80187225341797,74.12380981445312,-70.99371337890625,1.68566477298737,-2.34584498405457,-3.83823990821838,292.28274536132812,-173.53195190429688,1.79266667366028
562,612857523,99.50042724609375,74.31268310546875,-75.99185180664062,3.27167510986328,-2.10279107093811,-3.55437374114990,299.40505981445312,-166.87986755371094,5.61655282974243
563,612865856,97.36936187744141,74.39918518066406,-80.87442779541016,4.18298864364624,-1.22428750991821,-3.63323450088501,306.90197753906250,-160.22370910644531,10.81193828582764
564,612874189,95.39217376708984,74.37333679199219,-85.63981628417969,4.59738731384277,-0.21761384606361,-3.72647333145142,312.41857910156250,-152.38555908203125,16.83252525329590
565,612882522,93.67145538330078,74.22817993164062,-90.16652679443359,4.62059783935547,0.91469651460648,-3.47029924392700,315.37405395507812,-144.93589782714844,25.61673736572266
566,612890855,92.28672027587891,73.99278259277344,-94.36122894287109,3.93835711479187,2.38574337959290,-3.43443369865417,316.47338867187500,-138.46406555175781,33.56545639038086
567,612899188,91.09381103515625,73.69920349121094,-98.33540344238281,3.44797086715698,3.19812250137329,-3.62528848648071,313.44958496093750,-133.91091918945312,37.24252700805664
568,612907521,90.10437774658203,73.34723663330078,-102.05463409423828,3.40110397338867,2.68728494644165,-4.58766555786133,308.18063354492188,-125.91860961914062,40.18905258178711
569,612915854,89.55747985839844,72.97707366943359,-105.34296417236328,2.53544783592224,2.14754891395569,-4.82908201217651,310.63204956054688,-116.73786163330078,42.21214294433594
570,612924187,88.93383789062500,72.53856658935547,-108.70352935791016,1.21438181400299,2.54553842544556,-3.14413619041443,309.24731445312500,-119.99558258056641,47.67511367797852
571,612932520,88.28839874267578,72.08972930908203,-112.06822204589844,0.26278248429298,2.33287358283997,-1.75827884674072,305.81048583984375,-126.19517517089844,49.03910827636719
572,612940853,87.46918487548828,71.58506011962891,-115.63091278076172,-1.33021819591522,1.69526541233063,-0.84032803773880,306.85058593750000,-135.18762207031250,52.20856475830078
573,612949186,86.57044982910156,71.01998138427734,-119.35725402832031,-3.51438927650452,1.56457829475403,-0.64658045768738,314.35589599609375,-148.76956176757812,58.51047515869141
574,612957519,85.46829223632812,70.40077972412109,-123.38805389404297,-5.63193845748901,3.31701540946960,0.57234406471252,323.24023437500000,-164.32484436035156,59.65001678466797
575,612965852,84.15272521972656,69.73531341552734,-127.54450988769531,-9.07949924468994,5.40758609771729,2.67640280723572,309.71194458007812,-178.39562988281250,62.49401092529297
576,612974185,82.46878051757812,68.94389343261719,-132.00489807128906,-11.61934947967529,6.02005243301392,2.48607730865479,297.71752929687500,-198.37379455566406,68.91857910156250
577,612982518,80.77537536621094,68.00235748291016,-136.51879882812500,-12.80293941497803,8.55285072326660,2.93950009346008,299.47158813476562,-214.57565307617188,81.17036437988281
578,612990851,79.26369476318359,66.95546722412109,-140.66867065429688,-12.77384567260742,9.72541618347168,2.72065424919128,277.58432006835938,-209.37327575683594,87.25863647460938
579,612999184,77.76618194580078,65.95420837402344,-144.35044860839844,-11.88637924194336,9.36015510559082,0.33745941519737,224.20980834960938,-198.07278442382812,80.86096191406250
580,613007517,76.11490631103516,64.97441864013672,-147.84622192382812,-10.62305736541748,8.44458007812500,-1.84321177005768,182.42221069335938,-196.00805664062500,71.77657318115234
581,613015850,74.78030395507812,64.07611846923828,-150.97915649414062,-9.63043403625488,8.93479347229004,-2.65105938911438,178.12951660156250,-184.73646545410156,61.83009719848633
582,613024183,73.71065521240234,63.28166198730469,-153.71757507324219,-9.86239242553711,9.88313388824463,-2.55098128318787,165.13374328613281,-165.87416076660156,48.82004165649414
583,613032516,72.71599578857422,62.57108306884766,-156.16598510742188,-10.53134250640869,10.61902523040771,-1.65976631641388,141.09277343750000,-153.86749267578125,40.96233367919922
584,613040849,71.65256500244141,61.87424850463867,-158.46089172363281,-11.07248783111572,11.04718208312988,-1.14223790168762,114.99655151367188,-147.52984619140625,36.98298645019531
585,613049182,70.64774322509766,61.18070983886719,-160.53993225097656,-12.07364654541016,10.34551906585693,-1.10830676555634,97.51569366455078,-140.71826171875000,38.06147384643555
586,613057515,69.64252471923828,60.43521499633789,-162.47869873046875,-12.53865337371826,10.05016040802002,-1.24290847778320,81.42029571533203,-136.87178039550781,42.24372100830078
587,613065848,68.62003326416016,59.59354400634766,-164.39517211914062,-12.20030307769775,10.56519031524658,0.17061358690262,75.21730041503906,-144.73367309570312,51.00735473632812
588,613074181,67.52667999267578,58.65035629272461,-166.38755798339844,-10.36227321624756,10.85508155822754,2.96132302284241,72.94969940185547,-155.84802246093750,55.82011413574219
589,613082514,66.42720031738281,57.78454971313477,-168.20756530761719,-8.49812316894531,8.50193023681641,1.20124089717865,52.38805389404297,-147.82308959960938,48.03091430664062
590,613090847,65.40379333496094,56.91525268554688,-169.95899963378906,-7.68769454956055,7.54654979705811,0.51184165477753,53.10483551025391,-145.84561157226562,45.61114501953125
591,613099180,64.63256072998047,56.07959747314453,-171.54714965820312,-7.27432870864868,7.37728738784790,1.38288211822510,64.98390197753906,-139.01199340820312,43.75147628784180
592,613107513,64.00911712646484,55.27404785156250,-173.02470397949219,-7.86199617385864,7.57033681869507,1.98265659809113,70.56701660156250,-131.74815368652344,40.44924163818359
593,613115846,63.46678161621094,54.45819854736328,-174.40519714355469,-9.00271034240723,6.99513435363770,2.54233407974243,68.98025512695312,-130.08491516113281,42.80429458618164
594,613124179,62.97966384887695,53.59693527221680,-175.75149536132812,-10.18298530578613,6.49925422668457,2.44403076171875,71.24430084228516,-131.04013061523438,46.17403411865234
595,613132512,62.52424240112305,52.76546478271484,-177.00988769531250,-10.25362110137939,6.57780742645264,1.55770325660706,64.80107116699219,-127.36791992187500,44.47687149047852
596,613140845,62.07965850830078,51.94358825683594,-178.23406982421875,-10.07330799102783,7.19972944259644,1.41795098781586,61.91964721679688,-125.04202270507812,42.28028488159180
597,613149178,61.64197921752930,51.15458679199219,-179.43539428710938,-9.54120445251465,7.20056915283203,2.44675517082214,58.91780853271484,-124.98072814941406,38.43977355957031
598,613157511,61.19665908813477,50.38491821289062,179.37747192382812,-8.84326267242432,6.78009986877441,2.58868622779846,55.86216354370117,-123.05648803710938,34.66699600219727
599,613165844,60.78281021118164,49.65991210937500,178.22512817382812,-8.35399055480957,6.60595798492432,3.15527796745300,54.82037734985352,-121.15369415283203,30.23994255065918
600,613174177,60.37601852416992,48.94988250732422,177.06602478027344,-8.21543598175049,7.09740638732910,3.93100666999817,55.60032653808594,-120.60641479492188,26.33001136779785
601,613182510,60.00213241577148,48.26089859008789,175.93435668945312,-8.34376335144043,7.42759466171265,4.64559745788574,55.52995300292969,-120.21444702148438,24.34274673461914
602,613190843,59.62845993041992,47.60110092163086,174.84756469726562,-8.62681579589844,7.29961538314819,4.90811014175415,50.92658996582031,-115.09811401367188,21.17226219177246
603,613199176,59.26547622680664,46.98865509033203,173.81355285644531,-8.91672229766846,7.02462434768677,4.98426342010498,46.18508911132812,-110.94198608398438,17.74807739257812
604,613207509,58.91045761108398,46.42235183715820,172.81504821777344,-8.21404647827148,6.63381862640381,4.71861171722412,43.56575775146484,-105.16024017333984,12.76231193542480
605,613215842,58.58967208862305,45.97765731811523,171.93138122558594,-6.68101978302002,6.13414096832275,3.29442834854126,36.63791656494141,-91.46118927001953,4.80716753005981
606,613224175,58.30356597900391,45.61227035522461,171.13882446289062,-5.86461877822876,5.90332078933716,2.19599199295044,32.79690551757812,-79.20498657226562,-0.66585916280746
607,613232508,58.08348464965820,45.32728958129883,170.42346191406250,-5.41974782943726,5.79425573348999,1.76374578475952,33.37952423095703,-70.19381713867188,-5.42408657073975
608,613240841,57.90427398681641,45.05123138427734,169.71937561035156,-6.12419509887695,5.71517467498779,2.32709765434265,37.39014816284180,-67.80277252197266,-6.79663276672363
609,613249174,57.76885223388672,44.78174972534180,169.02709960937500,-6.99546098709106,5.98052215576172,4.09745407104492,40.96862792968750,-68.02702331542969,-6.72224855422974
610,613257507,57.59076309204102,44.52386093139648,168.32444763183594,-7.32686090469360,5.93360328674316,5.11737442016602,36.84280776977539,-66.98616790771484,-9.24285507202148
611,613265840,57.40473556518555,44.31289291381836,167.64968872070312,-7.33949565887451,5.38136720657349,4.74960565567017,32.95890808105469,-63.32676315307617,-12.48698234558105
612,613274173,57.21661376953125,44.13062667846680,167.00473022460938,-7.29582548141479,5.72872400283813,4.33173990249634,30.35898208618164,-58.24005508422852,-14.87300205230713
613,613282506,57.04313278198242,43.91957473754883,166.35113525390625,-7.94056940078735,6.52601194381714,4.67371797561646,32.35494232177734,-62.00588607788086,-12.06034755706787
614,613290839,56.90160369873047,43.57520675659180,165.63183593750000,-7.48853349685669,7.81682825088501,4.84859466552734,41.65961837768555,-74.55020904541016,-2.66116952896118
615,613299172,56.75036621093750,43.17798233032227,164.95149230957031,-6.59373569488525,8.20392322540283,5.23550271987915,36.61049652099609,-76.59857940673828,4.69132757186890
616,613307505,56.58716583251953,42.79783630371094,164.37763977050781,-5.69029521942139,7.52754974365234,4.86564874649048,26.32726097106934,-66.90081787109375,7.11721706390381
617,613315838,56.44650650024414,42.43965148925781,163.89720153808594,-5.35801744461060,6.89442062377930,4.02102661132812,20.83815002441406,-59.84466171264648,9.63239574432373
618,613324171,56.33113098144531,42.06561279296875,163.47766113281250,-6.00715589523315,6.67156362533569,4.09427738189697,18.96363258361816,-55.62707901000977,13.43155670166016
619,613332504,56.18014144897461,41.68957138061523,163.09732055664062,-6.69299268722534,6.65622854232788,4.94957780838013,11.30018806457520,-53.07305908203125,15.32281208038330
620,613340837,55.98571777343750,41.35316848754883,162.75619506835938,-7.05736112594604,5.82322645187378,4.98880243301392,2.47001194953918,-48.64232254028320,13.54279041290283
621,613349170,55.76399612426758,41.03663253784180,162.41810607910156,-6.95552539825439,5.58807754516602,4.84229898452759,-1.19635379314423,-47.21956253051758,11.45586109161377
622,613357503,55.50734710693359,40.71774291992188,162.05931091308594,-6.52688694000244,5.21820640563965,4.32974863052368,-3.66306042671204,-48.21793365478516,9.89794921875000
623,613365836,55.27138900756836,40.40726852416992,161.71859741210938,-5.91543483734131,4.95795440673828,3.93860411643982,-2.77257990837097,-46.47408294677734,9.70092296600342
624,613374169,55.08345794677734,40.07554626464844,161.39869689941406,-6.16650676727295,4.78070497512817,4.07617473602295,0.99342453479767,-47.40058898925781,13.11940860748291
625,613382502,54.93347930908203,39.71080017089844,161.07215881347656,-6.50600862503052,4.50556230545044,4.35229301452637,5.91142129898071,-50.33241653442383,15.82023620605469
626,613390835,54.79307937622070,39.30210494995117,160.72253417968750,-6.53435564041138,4.50622177124023,4.64587974548340,8.80094909667969,-54.44384002685547,18.16254425048828
627,613399168,54.65430068969727,38.87332534790039,160.37243652343750,-6.43833637237549,4.47467184066772,4.69942951202393,8.79334545135498,-56.08415222167969,19.85550117492676
628,613407501,54.50706100463867,38.43091964721680,160.02461242675781,-6.47358608245850,4.54857158660889,4.65892839431763,7.24844455718994,-57.92099380493164,21.64138603210449
629,613415834,54.35921859741211,37.95805358886719,159.66354370117188,-6.38057947158813,4.60421991348267,4.39875364303589,7.96813297271729,-61.28696823120117,23.67914390563965
630,613424167,54.19806289672852,37.43074798583984,159.24902343750000,-6.64486598968506,4.82466030120850,5.26394987106323,10.03849601745605,-68.64260864257812,25.07922172546387
631,613432500,54.00777816772461,36.85113143920898,158.75183105468750,-6.35480928421021,4.90008306503296,5.22154283523560,12.14921283721924,-79.05504608154297,25.14306259155273
632,613440833,53.80477142333984,36.29669189453125,158.25886535644531,-5.21484518051147,4.46618843078613,3.30587363243103,9.88512897491455,-78.15111541748047,23.16975021362305
633,613449166,53.59041595458984,35.75021743774414,157.78057861328125,-4.56831407546997,4.49801921844482,2.57005906105042,7.07433271408081,-76.79773712158203,22.80402183532715
634,613457499,53.33633422851562,35.19492721557617,157.29454040527344,-4.79720401763916,3.60444164276123,1.90877473354340,2.31820368766785,-77.57605743408203,21.95062828063965
635,613465832,53.06809616088867,34.65034866333008,156.80375671386719,-4.47628784179688,2.66332149505615,1.52900612354279,0.48764654994011,-77.55606842041016,20.08907508850098
636,613474165,52.85806655883789,34.12480926513672,156.32626342773438,-4.53194665908813,2.38782262802124,2.72941517829895,6.20433998107910,-76.35009002685547,19.32415008544922
637,613482498,52.65605926513672,33.60721969604492,155.83572387695312,-5.11754846572876,2.01789927482605,3.56846499443054,7.64030790328979,-77.18243408203125,17.39936256408691
638,613490831,52.44617462158203,33.11017227172852,155.33941650390625,-4.17407226562500,2.09534001350403,3.32211804389954,6.52730941772461,-75.49823760986328,13.79692363739014
639,613499164,52.27932357788086,32.61992645263672,154.85083007812500,-4.56298303604126,1.98152995109558,3.86601901054382,10.75798225402832,-74.66689300537109,13.20141315460205
640,613507497,52.09046936035156,32.21076965332031,154.37368774414062,-4.64059686660767,1.37438070774078,3.04387092590332,7.22447490692139,-68.98108673095703,6.78918361663818
641,613515830,51.91780471801758,31.84948730468750,153.89395141601562,-4.49254989624023,1.43661987781525,2.34500336647034,9.13302040100098,-65.89152526855469,1.84551286697388
642,613524163,51.74770736694336,31.50026893615723,153.38677978515625,-4.97629356384277,1.21891379356384,2.54676771163940,10.51532459259033,-66.35438537597656,-2.36705923080444
643,613532496,51.55228805541992,31.18438339233398,152.85839843750000,-4.46895647048950,1.19613718986511,1.91624975204468,8.49349594116211,-65.72948455810547,-7.18266963958740
644,613540829,51.38276672363281,30.85723686218262,152.30523681640625,-4.62860774993896,1.85262989997864,2.37378430366516,13.29887866973877,-69.75096130371094,-6.87281513214111
645,613549162,51.19828414916992,30.49296951293945,151.70230102539062,-5.08176946640015,1.97780787944794,2.70343136787415,14.28375339508057,-76.78827667236328,-6.84955263137817
646,613557495,51.02490234375000,30.08804893493652,151.05526733398438,-4.63424587249756,2.23075056076050,2.15995955467224,17.32703781127930,-82.42508697509766,-7.57562398910522
647,613565828,50.88827514648438,29.62552833557129,150.36306762695312,-4.18986654281616,3.35138702392578,3.15341901779175,23.92679023742676,-90.64785003662109,-5.57831144332886
648,613574161,50.70272064208984,29.14973449707031,149.62315368652344,-4.38305521011353,3.57829809188843,4.00652217864990,20.92672920227051,-97.00876617431641,-6.60252332687378
649,613582494,50.41115951538086,28.70585060119629,148.81883239746094,-4.66774082183838,2.38888692855835,3.00458836555481,11.37507629394531,-100.06855773925781,-14.43148422241211
650,613590827,50.10855484008789,28.27149772644043,147.95811462402344,-4.67723083496094,1.97436285018921,2.43021726608276,11.93151092529297,-102.85630035400391,-21.25896263122559
651,613599160,49.90665817260742,27.77870750427246,147.01942443847656,-5.60837841033936,1.99864482879639,4.94274330139160,27.66912651062012,-113.91983032226562,-21.90804290771484
652,613607493,49.73331451416016,27.29855537414551,146.00271606445312,-6.47213554382324,1.92733478546143,6.70577812194824,35.43471145629883,-120.88646697998047,-27.59660530090332
653,613615826,49.57381439208984,26.91362953186035,144.94503784179688,-7.13970232009888,1.92499458789825,6.18969297409058,38.74604034423828,-117.10340118408203,-39.60821914672852
654,613624159,49.48609924316406,26.58844375610352,143.84941101074219,-8.25064563751221,2.38050556182861,5.61342668533325,47.63582229614258,-114.36754608154297,-49.81694793701172
655,613632492,49.57669448852539,26.27679252624512,142.68881225585938,-10.18106460571289,4.09214353561401,5.39505290985107,71.84291839599609,-118.88072967529297,-55.79703521728516
656,613640825,49.68337631225586,25.96182632446289,141.40957641601562,-12.98175430297852,5.97957181930542,6.83667087554932,80.80726623535156,-130.65647888183594,-61.97203445434570
657,613649158,49.72719573974609,25.68219375610352,140.05052185058594,-14.55032253265381,7.04935121536255,8.31154537200928,76.90367889404297,-135.09504699707031,-70.53295135498047
658,613657491,49.68819427490234,25.38652229309082,138.65458679199219,-15.40531063079834,9.35003471374512,11.91784095764160,66.51580047607422,-137.95565795898438,-73.98208618164062
659,613665824,49.50556564331055,25.09000968933105,137.20979309082031,-14.21092414855957,10.74990177154541,13.83216381072998,50.99024963378906,-142.21205139160156,-77.85514831542969
660,613674157,49.09865188598633,24.95145034790039,135.82658386230469,-10.52926635742188,10.85529613494873,8.91785812377930,22.40811157226562,-126.50551605224609,-86.34584808349609
661,613682490,48.83623504638672,24.80490112304688,134.48550415039062,-13.28131866455078,10.96788215637207,9.79401588439941,37.44638061523438,-123.45690155029297,-83.28848266601562
662,613690823,48.67428588867188,24.65337944030762,133.13716125488281,-16.24050712585449,11.85139274597168,12.33638572692871,47.24878311157227,-122.19879150390625,-86.50920104980469
663,613699156,48.42632293701172,24.77920722961426,131.90434265136719,-15.33797264099121,10.45852947235107,10.55300235748291,31.08757591247559,-90.45315551757812,-103.57569885253906
664,613707489,48.14597320556641,25.05319595336914,130.75537109375000,-16.22095489501953,10.26264762878418,10.33004856109619,25.99303054809570,-73.39272308349609,-108.21620941162109
665,613715822,47.93421936035156,25.59228706359863,129.83239746093750,-13.20480060577393,9.30419921875000,8.64181709289551,23.68123245239258,-33.45451354980469,-115.16839599609375
666,613724155,47.68374633789062,26.20619392395020,129.04034423828125,-9.81081581115723,9.68159294128418,8.23723506927490,10.46110630035400,-13.57236480712891,-115.28543853759766
667,613732488,47.55502700805664,26.83387374877930,128.27653503417969,-5.85922002792358,7.33778619766235,6.73084735870361,27.31423377990723,-12.19317150115967,-110.84841156005859
668,613740821,47.62120437622070,27.42350006103516,127.52489471435547,-2.88467454910278,6.47186279296875,5.12677431106567,48.07850646972656,-11.24301147460938,-109.65824127197266
669,613749154,47.77948760986328,28.06112670898438,126.80826568603516,-0.92279642820358,6.81581449508667,4.41581010818481,60.90634918212891,-7.00676631927490,-107.75512695312500
670,613757487,48.02170562744141,28.54298973083496,126.07237243652344,-0.89353996515274,5.49085760116577,5.68899011611938,69.94823455810547,-18.61554336547852,-98.30406188964844
671,613765820,48.38104629516602,28.96458244323730,125.38216400146484,-1.09818935394287,3.17681312561035,4.11299228668213,84.85154724121094,-22.29857826232910,-86.18827819824219
672,613774153,49.14618301391602,29.31010055541992,124.85070800781250,-0.56441211700439,2.40998101234436,2.85587191581726,121.88528442382812,-14.24706935882568,-71.17173004150391
673,613782486,50.26782226562500,29.48894500732422,124.35807800292969,-3.34064149856567,5.89924192428589,7.71298074722290,165.58088684082031,-27.00476646423340,-49.78004837036133
674,613790819,51.63647842407227,29.35349273681641,123.76591491699219,-4.76620197296143,10.24698257446289,13.79683113098145,198.16888427734375,-57.99784851074219,-29.63426780700684
675,613799152,53.26927566528320,29.20845985412598,123.22196960449219,-3.74552607536316,12.55484676361084,14.08511924743652,230.05566406250000,-56.91243743896484,-21.08950614929199
