sep=,
DeviceTag:,Xsens DOT
FirmwareVersion:,2.1.0
AppVersion:,2022.0.0
StartTime: ,2022-08-15_19:16:59_000 EDT
© Xsens Technologies B. V. 2005-2022

PacketCounter,SampleTimeFine,Euler_X,Euler_Y,Euler_Z,Acc_X,Acc_Y,Acc_Z,Gyr_X,Gyr_Y,Gyr_Z
0,535214350,100.55396270751953,52.75611495971680,8.40042972564697,0.00000000000000,0.00000000000000,0.00000000000000,0.00000000000000,0.00000000000000,0.00000000000000
1,535222683,100.47803497314453,52.68621444702148,8.64268112182617,-4.97223711013794,3.16575813293457,0.54010009765625,-32.63351058959961,20.37322807312012,3.05811309814453
2,535231016,99.44288635253906,53.93913650512695,6.57277870178223,-4.92322111129761,3.42574763298035,0.74000275135040,-34.36375427246094,21.06222534179688,3.92369604110718
3,535239349,99.26536560058594,53.84899520874023,6.67931127548218,-5.10255861282349,3.34133601188660,0.90372699499130,-32.05687332153320,10.74080276489258,7.48861169815063
4,535247682,96.87473297119141,54.58973312377930,3.81085872650146,-4.60620784759521,2.95340108871460,0.80049717426300,-27.30705833435059,2.90826797485352,12.20578002929688
5,535256015,96.64186096191406,54.43902587890625,3.78645420074463,-4.26357936859131,2.91784286499023,0.51889300346375,-26.02325439453125,2.02327013015747,16.20186424255371
6,535264348,94.26623535156250,54.79211425781250,1.61996614933014,-3.98268461227417,2.78310799598694,0.39077693223953,-27.53339195251465,3.94638848304749,17.98415374755859
7,535272681,92.59408569335938,54.87690353393555,0.23960024118423,-3.71058607101440,2.65775680541992,0.03746992722154,-32.88212585449219,11.70787239074707,17.09980392456055
8,535281014,92.47700500488281,54.71763610839844,0.46253871917725,-3.63683271408081,2.50784087181091,-0.19705858826637,-36.43176269531250,17.92564010620117,16.39357185363770
9,535289347,92.41722106933594,54.55725479125977,0.80332642793655,-3.25450515747070,2.93562889099121,0.04451842233539,-41.02447891235352,26.10278320312500,16.23226547241211
10,535297680,91.52931976318359,54.49495315551758,0.35377722978592,-3.42413473129272,3.49138617515564,0.24942310154438,-45.58755874633789,26.43237495422363,18.94738960266113
11,535306013,90.80068206787109,54.17468261718750,0.03763613477349,-3.90183901786804,3.72961592674255,1.56464219093323,-42.16147994995117,15.32841491699219,26.05950355529785
12,535314346,90.58033752441406,53.89635467529297,0.17650176584721,-3.76626610755920,4.12951374053955,1.55566906929016,-40.44997787475586,11.84812259674072,31.26426887512207
13,535322679,90.35424804687500,53.57812118530273,0.31344020366669,-4.05613517761230,3.97266173362732,1.12527453899384,-40.89345169067383,11.68355655670166,36.10661315917969
14,535331012,89.35444641113281,53.04334259033203,-0.21307048201561,-4.22908926010132,3.80389070510864,0.53549516201019,-46.02268981933594,14.43253993988037,38.24399566650391
15,535339345,88.49182128906250,52.48004913330078,-0.59001278877258,-4.78412055969238,3.26426672935486,-0.03296474739909,-46.67605590820312,16.83319854736328,40.18147659301758
16,535347678,88.31683349609375,52.13755798339844,-0.29964676499367,-5.28006887435913,2.94961690902710,-0.26030793786049,-49.10105514526367,21.81263160705566,39.64271926879883
17,535356011,88.11640930175781,51.80453872680664,0.01812905073166,-6.16012334823608,2.47338652610779,-0.24309903383255,-54.60788726806641,23.89554977416992,38.65999221801758
18,535364344,87.50016021728516,51.40243530273438,-0.02310679107904,-6.84322452545166,1.95493996143341,0.09749679267406,-58.11754608154297,23.93986701965332,37.53148269653320
19,535372677,87.05660247802734,51.22258758544922,0.02706240117550,-7.64890718460083,1.48944103717804,0.78687924146652,-53.69545745849609,23.00918388366699,37.36958312988281
20,535381010,86.88132476806641,50.92977142333984,0.35945570468903,-8.48225402832031,1.34251463413239,1.24527966976166,-52.59293365478516,24.84004211425781,34.38361358642578
21,535389343,86.69677734375000,50.65287780761719,0.65573137998581,-9.67953205108643,1.01063489913940,1.37988698482513,-50.21646499633789,22.23899650573730,32.41141891479492
22,535397676,86.23387145996094,50.76314926147461,0.53967642784119,-10.77083778381348,0.64966392517090,1.42606818675995,-43.31513595581055,15.79672718048096,31.22173690795898
23,535406009,85.82422637939453,51.20346832275391,0.45511558651924,-10.71401596069336,0.47267928719521,0.42498674988747,-42.05270004272461,25.75897026062012,21.51178741455078
24,535414342,85.85424041748047,51.09264373779297,0.92394411563873,-11.21101474761963,0.69655740261078,-0.72590875625610,-40.74620056152344,35.94698715209961,13.79422569274902
25,535422675,85.91980743408203,51.01669692993164,1.38722562789917,-11.82452964782715,0.26051038503647,-0.71008074283600,-35.89466476440430,35.87429428100586,9.56884670257568
26,535431008,85.90176391601562,51.76728439331055,1.59872150421143,-12.02233505249023,1.47451150417328,-1.00889515876770,-29.34803962707520,42.65752410888672,6.68603563308716
27,535439341,86.01096343994141,52.60546875000000,1.79007446765900,-13.19514751434326,1.99911832809448,0.17692410945892,-17.70212364196777,32.79492187500000,8.83674335479736
28,535447674,86.27132415771484,52.58096694946289,2.29879617691040,-12.93208980560303,2.56870985031128,-0.32942533493042,-17.77363204956055,38.55637741088867,3.42027425765991
29,535456007,86.52532196044922,53.50669479370117,2.59011435508728,-14.04780864715576,2.63389253616333,0.10129226744175,-12.41727161407471,36.61433792114258,2.79574608802795
30,535464340,86.89282226562500,53.57394409179688,3.23772025108337,-13.82968997955322,2.94578790664673,-1.21858978271484,-18.92288398742676,48.34024810791016,-7.40223741531372
31,535472673,87.32441711425781,54.58835983276367,3.72338581085205,-15.25542068481445,3.45351672172546,-0.81005662679672,-12.74079036712646,44.85179519653320,-6.69205284118652
32,535481006,87.72877502441406,54.71751785278320,4.40619373321533,-15.21904659271240,4.09846735000610,-1.47557651996613,-18.83095741271973,49.81731033325195,-15.42502307891846
33,535489339,88.30030059814453,55.80127334594727,5.00704145431519,-15.68909263610840,4.36242532730103,-1.60088741779327,-10.25446319580078,45.26045227050781,-17.42902755737305
34,535497672,88.71741485595703,55.97414016723633,5.62593746185303,-15.52071475982666,4.80842208862305,-2.13320565223694,-11.95182132720947,43.98132705688477,-21.62534141540527
35,535506005,89.30793762207031,57.04404067993164,6.22943067550659,-15.73188686370850,4.88719320297241,-1.49265289306641,-10.69827651977539,36.32445144653320,-21.77980613708496
36,535514338,89.66812133789062,57.26185607910156,6.74072551727295,-15.00665855407715,3.72171354293823,-1.88250875473022,-8.83478832244873,35.32908248901367,-27.79214477539062
37,535522671,90.49890899658203,58.37382888793945,7.56498336791992,-13.73987293243408,4.21271371841431,-2.45696067810059,-5.64614820480347,43.58437347412109,-33.15987396240234
38,535531004,90.93401336669922,58.60144424438477,8.04204654693604,-13.76084804534912,3.63454794883728,-0.55073916912079,2.89367032051086,31.40732765197754,-29.62405014038086
39,535539337,91.72922515869141,59.59611892700195,8.65794467926025,-13.64339065551758,3.59376978874207,-0.51817756891251,10.96887493133545,25.01730155944824,-27.08179855346680
40,535547670,92.30687713623047,59.81102371215820,9.12493324279785,-12.46676731109619,4.12958431243896,-0.81918329000473,20.42579841613770,29.18350028991699,-28.68790435791016
41,535556003,93.26409149169922,60.72436523437500,9.83924293518066,-11.74088764190674,4.20594787597656,-1.61116039752960,20.86277580261230,28.68860435485840,-25.94606971740723
42,535564336,93.82695007324219,60.89064407348633,10.26558780670166,-11.58308029174805,4.75947332382202,-1.27239847183228,22.37117385864258,25.52011489868164,-23.36325073242188
43,535572669,94.79323577880859,61.65876007080078,10.94874668121338,-11.73962116241455,5.56862497329712,-0.97962766885757,26.01175498962402,23.76871109008789,-18.76072502136230
44,535581002,95.40258026123047,61.77228546142578,11.36987304687500,-11.80552005767822,5.97093963623047,-0.70956152677536,28.11478805541992,24.49633979797363,-17.58528709411621
45,535589335,96.41475677490234,62.46044158935547,12.15371513366699,-11.39179134368896,6.17927360534668,-1.42093467712402,22.32870292663574,27.96788978576660,-20.86455535888672
46,535597668,97.01298522949219,62.59035110473633,12.63714313507080,-11.24094009399414,6.50043535232544,-1.74803018569946,19.81340599060059,26.61906433105469,-20.48346328735352
47,535606001,97.96192932128906,63.19675064086914,13.39042091369629,-10.71719741821289,6.29794216156006,-1.32948160171509,19.23618507385254,23.79652214050293,-21.78322982788086
48,535614334,98.61941528320312,63.37078857421875,13.97407150268555,-9.65122413635254,5.70650815963745,-1.90746963024139,15.83300495147705,30.00935554504395,-27.06549263000488
49,535622667,99.76868438720703,63.92704010009766,14.95866298675537,-9.30216693878174,6.02449226379395,-1.32066369056702,19.54024124145508,33.31808853149414,-27.44986724853516
50,535631000,100.59680938720703,64.12264251708984,15.69735431671143,-8.69753360748291,5.62098169326782,-1.57146310806274,19.18083190917969,35.92679214477539,-31.81225585937500
51,535639333,101.85528564453125,64.61260986328125,16.74221611022949,-8.68761348724365,5.61777639389038,-1.65930879116058,27.07498168945312,34.12428665161133,-29.54948616027832
52,535647666,102.68441009521484,64.77053833007812,17.36066055297852,-8.70747280120850,5.56998586654663,-0.80092924833298,31.89947700500488,28.83762168884277,-27.09870338439941
53,535655999,103.86244201660156,65.19778442382812,18.29589843750000,-8.26576137542725,4.70364809036255,-1.38883662223816,30.25880432128906,27.49919891357422,-28.93883514404297
54,535664332,104.64665222167969,65.32842254638672,18.81306648254395,-8.85896492004395,5.11542749404907,-1.04118597507477,37.23715972900391,23.17650222778320,-23.41705894470215
55,535672665,105.59011077880859,65.67301177978516,19.47180747985840,-9.13512802124023,4.94367456436157,-0.41130280494690,33.16318511962891,14.76158428192139,-21.73377609252930
56,535680998,106.19506072998047,65.83750152587891,19.83714866638184,-8.72268390655518,3.92519831657410,-1.90012860298157,32.11131286621094,13.77300071716309,-25.73670005798340
57,535689331,107.15986633300781,66.17913055419922,20.53388404846191,-8.82661437988281,4.21410417556763,-1.59509313106537,32.29568862915039,15.65913772583008,-26.05580711364746
58,535697664,107.81409454345703,66.36095428466797,20.98097610473633,-8.82433986663818,3.96046066284180,-1.40788054466248,28.88542366027832,15.90257072448730,-29.10968971252441
59,535705997,108.81338500976562,66.71871948242188,21.74060058593750,-8.57746219635010,3.44713807106018,-2.08139729499817,29.99875831604004,16.30264663696289,-32.20974349975586
60,535714330,109.60233306884766,66.91337585449219,22.28392219543457,-8.26116085052490,3.43628931045532,-2.17973494529724,34.22940063476562,18.41670227050781,-32.30852508544922
61,535722663,110.77953338623047,67.22638702392578,23.16271972656250,-8.28407478332520,3.53430247306824,-1.96364820003510,38.41015243530273,20.73031997680664,-31.71000480651855
62,535730996,111.62520599365234,67.39385986328125,23.70677947998047,-8.52075099945068,3.77709794044495,-1.63382995128632,40.74069595336914,18.07575416564941,-29.63695907592773
63,535739329,112.72148132324219,67.66477203369141,24.46771430969238,-8.46725082397461,3.89705252647400,-1.61787247657776,42.01858901977539,15.46885871887207,-27.78174209594727
64,535747662,113.51311492919922,67.81614685058594,24.94639968872070,-8.39206981658936,4.12826681137085,-1.36400842666626,41.32699966430664,14.74340915679932,-27.03423309326172
65,535755995,114.63838958740234,68.05462646484375,25.76148986816406,-8.11816883087158,4.21034193038940,-1.47905373573303,39.88573837280273,17.90413665771484,-27.93293952941895
66,535764328,115.47319793701172,68.18706512451172,26.33141708374023,-8.13973236083984,4.74710369110107,-0.88466572761536,36.20075607299805,18.21680641174316,-26.97065544128418
67,535772661,116.53461456298828,68.39983367919922,27.16253280639648,-7.83132696151733,4.62359285354614,-0.79651039838791,30.88513946533203,18.77749633789062,-28.51403808593750
68,535780994,117.38397216796875,68.52521514892578,27.79464530944824,-7.40150117874146,4.66483449935913,-1.01486134529114,30.85714149475098,19.86098098754883,-27.80723953247070
69,535789327,118.42726135253906,68.68544769287109,28.65519905090332,-7.25545978546143,4.73241329193115,-0.94572007656097,25.91176223754883,21.96739387512207,-26.58791542053223
70,535797660,119.22749328613281,68.77938842773438,29.31143569946289,-7.29448747634888,4.75044393539429,-0.84213942289352,22.13070678710938,21.44649505615234,-25.41800308227539
71,535805993,120.08539581298828,68.92557525634766,30.05067825317383,-7.08721876144409,4.31793594360352,-1.16180229187012,17.76021194458008,17.52023315429688,-25.49306678771973
72,535814326,120.76876831054688,69.02746582031250,30.65272140502930,-6.60270595550537,3.97941660881042,-1.78684461116791,14.05777168273926,18.01463699340820,-25.43440818786621
73,535822659,121.64307403564453,69.14360046386719,31.48819351196289,-6.39314413070679,3.45566177368164,-2.05192565917969,9.29585170745850,21.95295906066895,-26.74563217163086
74,535830992,122.40415954589844,69.21406555175781,32.23173141479492,-6.31083679199219,3.44923615455627,-1.99081468582153,7.41799354553223,24.26103591918945,-25.75041580200195
75,535839325,123.09694671630859,69.27104949951172,32.92596054077148,-6.72588682174683,2.93340158462524,-2.05414867401123,4.72291088104248,22.99145889282227,-23.50050354003906
76,535847658,123.97776031494141,69.33269500732422,33.79924011230469,-6.52377223968506,2.59938621520996,-2.49416947364807,6.04286575317383,25.07585144042969,-24.20520782470703
77,535855991,124.88279724121094,69.36496734619141,34.72172546386719,-6.73404598236084,2.65379357337952,-2.37603068351746,3.58658576011658,27.99262428283691,-23.56290626525879
78,535864324,125.66200256347656,69.38076019287109,35.51970672607422,-6.78842067718506,2.67945432662964,-2.22874665260315,3.37117052078247,28.29718017578125,-22.78848838806152
79,535872657,126.34590911865234,69.37783813476562,36.24211120605469,-7.26934528350830,2.87498283386230,-1.87956547737122,0.41835775971413,26.76039886474609,-19.43232345581055
80,535880990,126.91521453857422,69.38068389892578,36.87475204467773,-8.37278079986572,2.75517821311951,-1.02905547618866,-3.98981571197510,18.98597145080566,-15.08495998382568
81,535889323,127.34598541259766,69.41502380371094,37.34801864624023,-8.39453029632568,2.47179722785950,-0.96426171064377,-2.59394121170044,11.67376708984375,-14.69695186614990
82,535897656,127.70748901367188,69.45513153076172,37.76630401611328,-8.10411930084229,2.38938140869141,-1.31952404975891,-4.13376760482788,12.89408206939697,-16.31408119201660
83,535905989,128.04661560058594,69.48622131347656,38.18249130249023,-8.44658470153809,2.60539007186890,-1.15675222873688,-6.59166002273560,13.38395500183105,-15.46154022216797
84,535914322,128.19033813476562,69.54325103759766,38.41467666625977,-9.23781204223633,2.97399234771729,-0.47089451551437,-9.93313884735107,2.35838007926941,-10.94546508789062
85,535922655,128.16244506835938,69.63960266113281,38.46685028076172,-9.15476417541504,2.59224963188171,-0.58917385339737,-10.22265625000000,-5.63383913040161,-10.28968811035156
86,535930988,128.11367797851562,69.72788238525391,38.52695465087891,-8.80761718750000,2.55055761337280,-1.16468954086304,-13.13448333740234,-2.72798085212708,-11.62898159027100
87,535939321,128.08961486816406,69.81291961669922,38.65139389038086,-9.13840579986572,2.50425410270691,-1.18056559562683,-17.41800498962402,-0.38481554389000,-12.97424125671387
88,535947654,127.96526336669922,69.93022155761719,38.68980407714844,-9.58610248565674,2.32607603073120,-0.86860620975494,-20.22870826721191,-6.87669420242310,-12.07500362396240
89,535955987,127.71227264404297,70.08322143554688,38.59172439575195,-9.49407958984375,1.86324954032898,-1.52228987216949,-20.28088951110840,-13.25098133087158,-12.06965255737305
90,535964320,127.44108581542969,70.22938537597656,38.45184707641602,-8.94086360931396,1.61815750598907,-2.64395976066589,-17.26970100402832,-13.36931705474854,-12.17392635345459
91,535972653,127.21466827392578,70.34839630126953,38.34896469116211,-8.80768775939941,1.60559487342834,-2.49178719520569,-16.06677818298340,-10.12675666809082,-10.58661079406738
92,535980986,127.08283996582031,70.46169281005859,38.32522964477539,-9.08815193176270,1.68037605285645,-2.37231636047363,-14.18133831024170,-7.76727485656738,-10.01428413391113
93,535989319,126.97854614257812,70.55666351318359,38.31573104858398,-9.09660720825195,1.85792374610901,-2.44606184959412,-12.54566192626953,-6.14456176757812,-8.36946582794189
94,535997652,126.85949707031250,70.61676788330078,38.28172683715820,-9.12729358673096,1.49084472656250,-2.84003400802612,-10.95791149139404,-3.57547855377197,-6.69590711593628
95,536005985,126.77832794189453,70.66333007812500,38.26544570922852,-9.06310844421387,1.51113307476044,-2.64762163162231,-8.41270351409912,-2.02364039421082,-5.83524417877197
96,536014318,126.74589538574219,70.70637512207031,38.30684661865234,-9.03787899017334,1.64091157913208,-2.24898576736450,-9.72648143768311,-1.02104759216309,-4.37295246124268
97,536022651,126.72800445556641,70.74926757812500,38.34384155273438,-8.94697189331055,1.45288491249084,-2.32177710533142,-7.54847669601440,-1.30272698402405,-4.02885007858276
98,536030984,126.64839172363281,70.75859069824219,38.30888366699219,-8.83862304687500,1.79279494285583,-2.26381015777588,-6.11384963989258,0.05865660309792,-1.80830109119415
99,536039317,126.57123565673828,70.75659179687500,38.24083709716797,-9.25977230072021,1.76630985736847,-2.32902812957764,-2.06761932373047,-0.17636680603027,0.04966599866748
100,536047650,126.54495239257812,70.76033020019531,38.18547821044922,-9.52410793304443,2.11988091468811,-2.03427600860596,1.87660133838654,-1.53804504871368,2.09637141227722
101,536055983,126.47686767578125,70.76508331298828,38.09674072265625,-9.72667694091797,2.13393950462341,-2.07417559623718,0.62022304534912,-2.66117835044861,2.86057233810425
102,536064316,126.26398468017578,70.75899505615234,37.87375640869141,-9.72627162933350,2.32055711746216,-2.08553791046143,-0.80803942680359,-4.83055019378662,4.08972263336182
103,536072649,126.03205871582031,70.74673461914062,37.67043304443359,-9.75613117218018,2.12397980690002,-2.38548088073730,-5.31842565536499,-3.78741121292114,4.19307661056519
104,536080982,125.93894958496094,70.75309753417969,37.60918045043945,-9.45922183990479,2.09756016731262,-2.86289095878601,-5.46688508987427,-1.87105584144592,2.05823206901550
105,536089315,125.82164764404297,70.73281097412109,37.51947021484375,-9.19536590576172,2.71659302711487,-2.23018050193787,-5.18402719497681,-1.06272184848785,5.34067058563232
106,536097648,125.56552886962891,70.69512176513672,37.27012252807617,-9.83848762512207,2.27090024948120,-2.22101378440857,-3.01575589179993,-3.55442357063293,7.72189855575562
107,536105981,125.43068695068359,70.67068481445312,37.12545394897461,-9.70601272583008,2.07757592201233,-3.19531989097595,-0.32208621501923,-1.13336598873138,3.99269556999207
108,536114314,125.38861083984375,70.62720489501953,37.04827880859375,-9.10825443267822,3.23847341537476,-2.21490073204041,2.45074486732483,0.87511050701141,7.23325681686401
109,536122647,125.21948242187500,70.57682037353516,36.85751724243164,-9.42870712280273,2.86577701568604,-1.20999205112457,0.09853797405958,-2.53771781921387,10.39605045318604
110,536130980,124.80989074707031,70.54849243164062,36.38906097412109,-9.57523250579834,2.86895990371704,-0.96507090330124,3.33410286903381,-11.54540061950684,11.80680656433105
111,536139313,124.40946197509766,70.50254821777344,35.96821594238281,-9.25632476806641,2.88323760032654,-1.06856513023376,-0.96459388732910,-8.89012622833252,12.38189888000488
112,536147646,124.03578948974609,70.47272491455078,35.57259368896484,-9.16574287414551,2.72162008285522,-0.81747806072235,-1.25723659992218,-10.54890441894531,12.75714683532715
113,536155979,123.59739685058594,70.43618774414062,35.15678787231445,-9.16907978057861,2.68134140968323,-0.83244794607162,-6.11090421676636,-9.59618282318115,11.21796131134033
114,536164312,123.13314819335938,70.41955566406250,34.73527145385742,-9.29968547821045,2.83274197578430,-0.80134189128876,-9.16612052917480,-12.14918136596680,11.67860889434814
115,536172645,122.56417083740234,70.39514160156250,34.25071334838867,-9.19049835205078,2.78012442588806,-0.96310675144196,-14.02586078643799,-12.96197319030762,11.32228946685791
116,536180978,121.93233489990234,70.39405822753906,33.70825958251953,-8.92013263702393,2.80117344856262,-1.00164449214935,-15.56048965454102,-17.14183616638184,12.31658458709717
117,536189311,121.20303344726562,70.39384460449219,33.05548858642578,-8.54653358459473,2.97996592521667,-0.67205327749252,-14.76266193389893,-20.85544586181641,14.17807865142822
118,536197644,120.36959838867188,70.37815093994141,32.29052352905273,-8.48922920227051,2.80889797210693,-0.58007365465164,-14.07479095458984,-23.67914009094238,15.69626331329346
119,536205977,119.58183288574219,70.36421203613281,31.60558128356934,-8.04821968078613,2.32245373725891,-1.04295682907104,-17.64108848571777,-21.25182723999023,13.53877258300781
120,536214310,118.83110046386719,70.35235595703125,30.97719001770020,-7.63825130462646,2.63522338867188,-1.07952356338501,-20.02480316162109,-19.62670707702637,13.82165813446045
121,536222643,118.00442504882812,70.30766296386719,30.27571868896484,-7.54892730712891,2.80989384651184,-0.60839128494263,-20.87543106079102,-20.46027374267578,18.30013465881348
122,536230976,116.95822143554688,70.23862457275391,29.28531455993652,-8.02123832702637,2.82372903823853,-0.00925657525659,-14.20030975341797,-29.93766593933105,24.17336845397949
123,536239309,115.78540802001953,70.14567565917969,28.15613555908203,-8.15279865264893,2.93306756019592,0.62469941377640,-13.78221321105957,-34.35365676879883,28.69503974914551
124,536247642,114.52396392822266,70.04498291015625,26.94167137145996,-8.36486244201660,2.92460536956787,0.72940176725388,-15.20926761627197,-37.59490966796875,31.95288467407227
125,536255975,113.22827148437500,69.93872070312500,25.73663902282715,-8.23984909057617,2.55046391487122,0.13985438644886,-20.40292930603027,-37.37289047241211,31.44985580444336
126,536264308,111.93320465087891,69.80847167968750,24.58005905151367,-7.97788906097412,2.74702119827271,-0.48980572819710,-25.62104988098145,-36.26123046875000,31.08313179016113
127,536272641,110.71669006347656,69.68628692626953,23.56217002868652,-7.86003732681274,2.47281432151794,-1.27080547809601,-32.13274002075195,-31.12128639221191,28.75143623352051
128,536280974,109.48825073242188,69.52732849121094,22.55419540405273,-7.57227945327759,2.81415009498596,-1.02091240882874,-34.56603622436523,-31.18871307373047,30.72039222717285
129,536289307,108.32604217529297,69.35874938964844,21.62555313110352,-7.52354907989502,2.24811434745789,-0.89226996898651,-35.85375976562500,-27.61960601806641,31.49125099182129
130,536297640,107.25146484375000,69.18500518798828,20.76889801025391,-7.47905397415161,2.74380898475647,-0.90049844980240,-33.33150863647461,-26.43396377563477,29.28973960876465
131,536305973,106.16751098632812,68.98183441162109,19.95443916320801,-7.34665250778198,2.84635853767395,-0.53819298744202,-39.31164169311523,-24.57880592346191,31.69482994079590
132,536314306,105.02183532714844,68.78044128417969,19.05483627319336,-7.45298194885254,2.38306021690369,-0.01718367263675,-37.47748565673828,-28.17331695556641,33.42475128173828
133,536322639,103.75025939941406,68.56169128417969,18.02984809875488,-7.46678638458252,2.81233811378479,0.70518124103546,-38.66867065429688,-33.94879531860352,36.19746398925781
134,536330972,102.40498352050781,68.29843902587891,16.94874954223633,-7.61296176910400,2.32637929916382,0.85750252008438,-41.31202316284180,-37.46876907348633,39.88774871826172
135,536339305,101.02868652343750,68.02088165283203,15.82517147064209,-7.55147933959961,2.23689365386963,0.78392416238785,-40.53243255615234,-40.51371002197266,41.11788940429688
136,536347638,99.67996978759766,67.72948455810547,14.75903797149658,-7.56396818161011,1.75029885768890,0.21891090273857,-43.93374633789062,-37.91754913330078,42.75170898437500
137,536355971,98.40382385253906,67.42012786865234,13.73660850524902,-7.61236953735352,1.55260753631592,-0.07809434831142,-40.29314804077148,-36.99789047241211,43.86869049072266
138,536364304,97.27983093261719,67.08062744140625,12.84938430786133,-7.47702646255493,1.36191642284393,-0.50729680061340,-37.22107696533203,-33.37874603271484,44.30570220947266
139,536372637,96.20436859130859,66.73845672607422,12.02317905426025,-7.46411991119385,1.17173278331757,-0.42408877611160,-38.42161941528320,-30.42482566833496,45.50883102416992
140,536380970,95.11683654785156,66.35384368896484,11.18197917938232,-7.69015502929688,1.21315324306488,0.07918841391802,-38.41963195800781,-33.57513809204102,48.23144531250000
141,536389303,93.98433685302734,65.94605255126953,10.25669574737549,-7.71088314056396,1.08231890201569,0.37786206603050,-34.89975738525391,-37.52788925170898,52.87953567504883
142,536397636,93.03792572021484,65.50743865966797,9.46221160888672,-7.50951910018921,1.28052091598511,0.57758790254593,-27.17854881286621,-34.03753280639648,53.28193283081055
143,536405969,92.20859527587891,65.07874298095703,8.82124900817871,-7.53063344955444,1.30578649044037,0.24476817250252,-30.18425559997559,-26.30017471313477,53.77758407592773
144,536414302,91.50024414062500,64.61652374267578,8.32309818267822,-7.83606719970703,1.56349670886993,0.17144005000591,-31.41317367553711,-21.73769378662109,54.61132812500000
145,536422635,90.77040863037109,64.16527557373047,7.85347270965576,-8.35194778442383,1.95918905735016,0.37178966403008,-37.27016448974609,-19.80576705932617,55.89086151123047
146,536430968,89.99972534179688,63.67195892333984,7.37877368927002,-9.07773590087891,2.23076820373535,1.13548719882965,-41.83599853515625,-22.77950477600098,57.72551345825195
147,536439301,89.29457092285156,63.22154235839844,6.97650194168091,-9.03732872009277,1.82035005092621,1.14255237579346,-41.91489410400391,-18.32636260986328,55.50992584228516
148,536447634,88.66773986816406,62.73930358886719,6.71835136413574,-9.81424427032471,2.24335336685181,1.62396645545959,-48.14020919799805,-13.22744750976562,55.97654724121094
149,536455967,88.08879089355469,62.29778671264648,6.49947166442871,-10.42060470581055,1.28857600688934,1.20909416675568,-46.54134368896484,-9.84499168395996,54.64007949829102
150,536464300,87.67340087890625,61.86062240600586,6.48903512954712,-10.97536945343018,1.42355191707611,0.96848422288895,-49.25735092163086,-0.64616042375565,50.78182601928711
151,536472633,87.19718170166016,61.46410751342773,6.45801925659180,-11.93657684326172,0.88675028085709,0.53422439098358,-54.23616409301758,-0.00119106774218,50.17053985595703
152,536480966,86.83702850341797,61.05727386474609,6.54215717315674,-12.36665153503418,0.34447225928307,0.07634240388870,-52.58800888061523,4.19273567199707,47.39722442626953
153,536489299,86.55953979492188,60.72790908813477,6.67744064331055,-13.16754436492920,0.16002976894379,0.17707796394825,-47.88841247558594,9.42018222808838,43.59167480468750
154,536497632,86.32277679443359,60.39989471435547,6.86707782745361,-14.26403617858887,0.29315465688705,0.42479288578033,-48.74676513671875,10.61106681823730,38.38644790649414
155,536505965,86.03155517578125,60.15731430053711,6.97356557846069,-14.74923706054688,0.01539187971503,0.79367619752884,-46.50159072875977,8.08715534210205,34.31997680664062
156,536514298,85.76872253417969,59.90437316894531,7.09660434722900,-15.01064109802246,0.55130350589752,1.20540416240692,-44.84576797485352,7.08615684509277,29.23168945312500
157,536522631,85.41389465332031,59.75376129150391,7.12481927871704,-15.38067054748535,0.43088358640671,1.37683880329132,-45.99347686767578,4.02618312835693,24.24026679992676
158,536530964,85.06304168701172,59.51357650756836,7.09162282943726,-16.17967414855957,0.58199870586395,2.05815863609314,-39.18016433715820,-2.49120688438416,27.00880432128906
159,536539297,84.70582580566406,59.37737655639648,6.99327516555786,-16.92186737060547,0.59824764728546,2.74019265174866,-33.16035079956055,-3.57891559600830,23.09554481506348
160,536547630,84.44142913818359,59.22031402587891,6.97485971450806,-17.23115158081055,0.69213485717773,2.29209971427917,-30.34120750427246,-0.98892813920975,17.13650512695312
161,536555963,84.16665649414062,59.12815475463867,6.90711736679077,-18.11710739135742,1.74405932426453,1.70033407211304,-26.38497924804688,-1.12296748161316,19.25869560241699
162,536564296,84.11055755615234,58.97851181030273,6.96038627624512,-18.32331657409668,1.79466688632965,0.56503397226334,-12.72547626495361,3.36793994903564,16.71098899841309
163,536572629,84.04556274414062,58.88481521606445,6.96261882781982,-19.21779632568359,4.19668149948120,0.72093623876572,-8.43314456939697,3.09166479110718,21.06599998474121
164,536580962,84.00370788574219,58.76604843139648,6.95841455459595,-18.10462951660156,4.52588415145874,0.13428039848804,-5.10221624374390,0.19907388091087,12.69733715057373
165,536589295,83.85832977294922,58.83561325073242,6.88005018234253,-16.65020370483398,3.76533484458923,-1.52585768699646,-9.84814834594727,0.00461056223139,1.83087980747223
166,536597628,83.83395385742188,58.99717330932617,6.87527561187744,-13.50174999237061,2.79363894462585,-2.89278244972229,-2.93947792053223,3.73829650878906,-20.72114372253418
167,536605961,83.81003570556641,59.32529449462891,6.79823160171509,-12.83886051177979,2.99097681045532,-1.96104681491852,4.43697834014893,2.90847325325012,-28.41936302185059
168,536614294,83.82460784912109,59.68338775634766,6.64832544326782,-10.41664218902588,1.85471081733704,-2.92717051506042,16.74121475219727,-2.48715972900391,-45.08604812622070
169,536622627,83.89270019531250,60.14089584350586,6.48693275451660,-9.57291030883789,2.87914395332336,-2.92771887779236,24.14221191406250,-0.90921759605408,-44.03799819946289
170,536630960,83.95852661132812,60.41632461547852,6.21039295196533,-9.07805919647217,2.81326317787170,-2.09114027023315,36.21195983886719,-10.89620780944824,-35.94348526000977
171,536639293,84.00773620605469,60.57307052612305,5.73314857482910,-8.57943534851074,3.35994935035706,-1.06328856945038,55.23854446411133,-24.13807296752930,-23.10955619812012
172,536647626,84.10125732421875,60.74177551269531,5.08436536788940,-8.97311878204346,3.74134826660156,-1.11301934719086,78.26919555664062,-33.23514556884766,-12.34488677978516
173,536655959,84.40760803222656,60.66542816162109,4.40804100036621,-10.11818885803223,4.18215036392212,-1.74799787998199,107.03192138671875,-38.48304748535156,3.73073053359985
174,536664292,84.94412994384766,60.60222625732422,3.79864478111267,-10.64104747772217,3.94878387451172,-2.57948732376099,127.41577148437500,-33.70879364013672,15.83022689819336
175,536672625,85.67507171630859,60.40799713134766,3.23676776885986,-9.98238754272461,6.02215433120728,-2.81953549385071,145.65003967285156,-32.52799987792969,31.96600341796875
176,536680958,86.49200439453125,60.04911041259766,2.77771925926208,-7.99582433700562,7.45152187347412,-3.03734564781189,145.33647155761719,-28.25486564636230,39.87027740478516
177,536689291,87.23678588867188,59.60614776611328,2.24971866607666,-7.20313549041748,9.21084117889404,-3.42697072029114,143.64288330078125,-32.74290084838867,49.99872589111328
178,536697624,87.87448883056641,59.20026779174805,1.54361224174500,-6.68545675277710,10.69971847534180,-3.31569290161133,148.75021362304688,-42.50765609741211,57.80416488647461
179,536705957,88.43899536132812,58.81648254394531,0.75743567943573,-6.20201396942139,10.82061290740967,-3.71193623542786,147.84745788574219,-47.82682418823242,54.19914245605469
180,536714290,88.99832916259766,58.37934875488281,-0.10912402719259,-6.62003993988037,11.43075084686279,-3.97014284133911,155.35476684570312,-53.36839675903320,50.05878829956055
181,536722623,89.52851867675781,58.03801727294922,-1.01596987247467,-7.21913242340088,10.79080772399902,-4.03393793106079,155.60676574707031,-55.88508224487305,38.95373535156250
182,536730956,89.96935272216797,57.84772109985352,-2.09854817390442,-8.11397647857666,9.42790985107422,-5.36802387237549,162.30189514160156,-66.89043426513672,31.05605125427246
183,536739289,90.35451507568359,57.71736145019531,-3.27952337265015,-8.70150947570801,8.57936286926270,-5.48689270019531,165.26950073242188,-73.96657562255859,23.34570884704590
184,536747622,90.67954254150391,57.63568496704102,-4.54896879196167,-9.20983314514160,6.43351173400879,-6.56953859329224,167.20045471191406,-79.40271759033203,9.40417957305908
185,536755955,91.01926422119141,57.64430236816406,-5.84214496612549,-9.91423320770264,6.28670024871826,-6.80124330520630,171.33308410644531,-81.09632110595703,-1.01126909255981
186,536764288,91.35611724853516,57.87883758544922,-7.15658235549927,-10.20085716247559,4.74884223937988,-7.75584745407104,172.93313598632812,-83.54002380371094,-19.18980216979980
187,536772621,91.79946136474609,58.20940017700195,-8.42848682403564,-10.05076599121094,4.47211122512817,-9.00446319580078,181.51962280273438,-81.58403778076172,-30.26951789855957
188,536780954,92.29431915283203,58.51373291015625,-9.74034976959229,-10.25580787658691,5.48975706100464,-9.15237808227539,192.86430358886719,-81.89871215820312,-34.63572692871094
189,536789287,92.75749206542969,58.86281585693359,-11.17288398742676,-10.48079872131348,5.62048196792603,-9.71428012847900,201.92214965820312,-89.13854980468750,-39.07003021240234
190,536797620,93.24432373046875,59.29862976074219,-12.69082355499268,-10.88918209075928,6.51146650314331,-9.70132923126221,213.37629699707031,-96.66406250000000,-39.82833862304688
191,536805953,93.67357635498047,59.76202392578125,-14.34986686706543,-11.34062290191650,6.64970874786377,-10.02628231048584,221.45362854003906,-105.71263885498047,-41.94763946533203
192,536814286,93.99679565429688,60.17396545410156,-16.21294021606445,-11.39952278137207,6.76125478744507,-10.50386714935303,231.77383422851562,-113.06448364257812,-42.88518524169922
193,536822619,94.18227386474609,60.57496261596680,-18.27695465087891,-11.89504432678223,7.38606023788452,-9.90198326110840,237.02273559570312,-123.62123107910156,-40.37410736083984
194,536830952,94.20599365234375,61.06525802612305,-20.55553054809570,-12.17726802825928,6.20370197296143,-10.99242782592773,239.89073181152344,-139.50279235839844,-41.08000183105469
195,536839285,94.17639923095703,61.55780410766602,-22.97832489013672,-11.41090774536133,6.06358528137207,-12.25232219696045,249.54620361328125,-146.84921264648438,-40.89250183105469
196,536847618,94.03734588623047,61.94025421142578,-25.54449462890625,-11.75987243652344,6.58400630950928,-13.10634708404541,253.97932434082031,-146.84539794921875,-36.35440444946289
197,536855951,93.79944610595703,62.26869201660156,-28.30642318725586,-12.65783023834229,5.87492942810059,-14.44349098205566,263.81814575195312,-155.49441528320312,-29.78913688659668
198,536864284,93.42964172363281,62.61218643188477,-31.32334709167480,-13.14706707000732,6.08642101287842,-13.46615600585938,274.71978759765625,-173.96424865722656,-22.08549499511719
199,536872617,92.64031219482422,62.91850662231445,-34.78881835937500,-12.52230548858643,5.39571142196655,-13.30674648284912,272.76443481445312,-197.61231994628906,-17.90587806701660
200,536880950,90.91234588623047,63.08269119262695,-39.26246643066406,-12.56479072570801,5.85080957412720,-12.15744400024414,270.36376953125000,-242.43469238281250,-13.14107894897461
201,536889283,88.18949890136719,63.14366531372070,-44.80821228027344,-13.03222942352295,5.83649778366089,-12.74843025207520,266.27615356445312,-298.97537231445312,-10.71155643463135
202,536897616,85.20568084716797,63.19731521606445,-50.89624786376953,-8.80869102478027,6.42185735702515,-13.90505695343018,292.33364868164062,-335.03219604492188,-15.65401554107666
203,536905949,82.64200592041016,63.02975082397461,-56.81372451782227,-2.75612068176270,8.99312877655029,-10.69071388244629,325.15628051757812,-319.55892944335938,-15.04488372802734
204,536914282,81.47111511230469,62.98529434204102,-61.53425598144531,1.58270919322968,7.53490257263184,-10.20188045501709,362.85876464843750,-262.41827392578125,-19.87526130676270
205,536922615,80.50807952880859,62.91499710083008,-65.84078979492188,0.92915666103363,6.13515520095825,-11.71432590484619,344.09185791015625,-231.64671325683594,-29.50742530822754
206,536930948,79.49229431152344,62.91243743896484,-69.97811126708984,0.61260014772415,5.21889972686768,-9.92597675323486,318.73764038085938,-229.98806762695312,-28.94460105895996
207,536939281,78.58264160156250,62.93959426879883,-73.89122772216797,3.17902612686157,4.09710216522217,-7.59028244018555,307.17611694335938,-217.24649047851562,-34.45810699462891
208,536947614,77.86294555664062,62.95449066162109,-77.57028961181641,4.73807811737061,3.36118435859680,-6.87254762649536,306.12411499023438,-194.62611389160156,-43.79541015625000
209,536955947,77.59957885742188,63.04285049438477,-80.77001953125000,5.18312406539917,3.93916773796082,-6.43890047073364,309.86032104492188,-166.39988708496094,-48.43678283691406
210,536964280,77.45322418212891,63.16397094726562,-83.79982757568359,3.55501675605774,5.18319129943848,-3.40700840950012,305.17395019531250,-164.94230651855469,-40.08859634399414
211,536972613,77.35538482666016,63.25075531005859,-86.75954437255859,3.65918636322021,4.25707435607910,-0.34503826498985,303.59197998046875,-161.29560852050781,-36.18136596679688
212,536980946,77.31995391845703,63.26934814453125,-89.61847686767578,3.59488773345947,3.55912303924561,-0.00818030536175,301.40350341796875,-148.61851501464844,-37.12484741210938
213,536989279,77.40850830078125,63.28227615356445,-92.24521636962891,2.67315506935120,4.02343797683716,-1.64425790309906,291.47488403320312,-136.36277770996094,-33.58580780029297
214,536997612,77.61512756347656,63.25080871582031,-94.74574279785156,-0.28222888708115,4.91738843917847,-1.19873213768005,291.56033325195312,-138.53340148925781,-16.61086082458496
215,537005945,77.81990814208984,63.06837081909180,-97.26398468017578,-2.14675188064575,6.00789928436279,-0.28573763370514,292.90109252929688,-143.38406372070312,0.67330765724182
216,537014278,77.97144317626953,62.71212005615234,-99.74458312988281,-3.64529442787170,7.14842319488525,-0.01615311950445,282.39620971679688,-140.14682006835938,12.19810771942139
217,537022611,78.08724212646484,62.27139663696289,-102.19908142089844,-4.88807868957520,6.95114469528198,0.12834265828133,274.41714477539062,-142.50788879394531,22.41725158691406
218,537030944,78.29790496826172,61.86293029785156,-104.52219390869141,-5.03835344314575,6.54613590240479,-0.04323422908783,270.51437377929688,-142.10395812988281,29.34828186035156
219,537039277,78.48824310302734,61.38928222656250,-106.78598022460938,-5.31088781356812,5.78010940551758,-0.10710829496384,260.76397705078125,-141.62730407714844,37.26414108276367
220,537047610,78.69079589843750,60.80140304565430,-108.90683746337891,-5.83865785598755,4.45219802856445,0.14946083724499,246.32446289062500,-133.13702392578125,43.62079620361328
221,537055943,79.04364013671875,60.22895050048828,-110.72529602050781,-6.62689828872681,2.93502640724182,0.00130607048050,231.55136108398438,-117.16592407226562,45.52729797363281
222,537064276,79.64682769775391,59.75851440429688,-112.24597930908203,-8.24720001220703,1.54916214942932,-0.01253462955356,229.53285217285156,-103.00135803222656,46.08573913574219
223,537072609,80.46604919433594,59.32036972045898,-113.52093505859375,-9.84325027465820,2.85081338882446,-0.22020393610001,229.36477661132812,-88.03826904296875,46.00930786132812
224,537080942,81.13430023193359,58.80499267578125,-114.85925292968750,-11.18969821929932,5.48179101943970,-0.31681615114212,217.14726257324219,-90.03764343261719,46.62804031372070
225,537089275,81.64997863769531,58.34247207641602,-116.28263092041016,-10.97362995147705,7.15985679626465,1.00162088871002,206.89418029785156,-98.48506927490234,49.33501434326172
226,537097608,81.98305511474609,57.79147338867188,-117.82084655761719,-10.51141738891602,8.08962345123291,1.38263583183289,195.81336975097656,-104.72341156005859,50.30471420288086
227,537105941,82.13683319091797,57.32074356079102,-119.43048858642578,-9.67576503753662,6.70076036453247,1.18006646633148,180.88084411621094,-111.96360015869141,49.19326019287109
228,537114274,82.29814910888672,56.78891754150391,-120.99587249755859,-9.32239437103271,5.02546167373657,0.14639860391617,176.17565917968750,-108.55338287353516,48.13726043701172
229,537122607,82.54316711425781,56.34187698364258,-122.47647094726562,-9.76146984100342,4.54044151306152,0.01976664923131,177.27644348144531,-105.20523071289062,47.69853591918945
230,537130940,82.70588684082031,55.80634307861328,-124.03527069091797,-10.70552825927734,4.41442823410034,-0.01715998724103,173.90670776367188,-110.50271606445312,49.05082321166992
231,537139273,82.94253540039062,55.33115386962891,-125.55745697021484,-10.75241088867188,3.78135609626770,0.73929488658905,178.81553649902344,-110.35703277587891,51.16133499145508
232,537147606,83.19049072265625,54.78887939453125,-127.05240631103516,-11.27455329895020,5.08634233474731,0.71237045526505,175.97972106933594,-108.59118652343750,50.90180587768555
233,537155939,83.32344818115234,54.30959701538086,-128.62705993652344,-11.31720829010010,5.01087331771851,1.67805516719818,169.86108398437500,-115.96524810791016,51.85340499877930
234,537164272,83.52154541015625,53.75888824462891,-130.13516235351562,-10.96001529693604,5.51552248001099,1.97854340076447,169.39028930664062,-111.92463684082031,52.16235733032227
235,537172605,83.61959075927734,53.29637908935547,-131.65942382812500,-10.79462337493896,6.03786134719849,1.88292503356934,159.16787719726562,-114.18751525878906,50.62328720092773
236,537180938,83.71721649169922,52.78811645507812,-133.08964538574219,-9.67308902740479,6.00067138671875,1.73101353645325,147.99816894531250,-108.07949066162109,47.91110992431641
237,537189271,83.79482269287109,52.34801101684570,-134.48825073242188,-9.85838222503662,6.58364439010620,1.63201665878296,143.18782043457031,-106.66709899902344,48.93125915527344
238,537197604,83.90821838378906,51.84721755981445,-135.81559753417969,-9.52442836761475,5.65322494506836,1.96162092685699,138.41342163085938,-102.54448699951172,47.92218017578125
239,537205937,84.06773376464844,51.38836288452148,-136.99508666992188,-9.79529190063477,4.94271898269653,0.63571441173553,129.24885559082031,-91.90632629394531,44.25885772705078
240,537214270,84.17438507080078,51.01111602783203,-138.14543151855469,-10.20860576629639,4.04637002944946,0.46021252870560,121.33829498291016,-89.76494598388672,43.47045516967773
241,537222603,84.25637817382812,50.61779785156250,-139.30503845214844,-11.25067996978760,3.84469676017761,0.92332714796066,118.74160003662109,-91.21855163574219,45.46331024169922
242,537230936,84.28557586669922,50.15029525756836,-140.47956848144531,-11.97774696350098,2.95669198036194,0.93369472026825,111.17813110351562,-93.89588928222656,45.47040557861328
243,537239269,84.34770965576172,49.75481414794922,-141.61528015136719,-11.64062118530273,2.79530906677246,1.14480078220367,113.02574157714844,-90.81204223632812,46.13252258300781
244,537247602,84.48745727539062,49.31691360473633,-142.63908386230469,-10.85041618347168,4.02336597442627,1.19503247737885,109.33168029785156,-83.36561584472656,43.14629364013672
245,537255935,84.40693664550781,48.91149902343750,-143.79019165039062,-11.22063922882080,4.71211433410645,2.39668250083923,96.13135528564453,-93.42072296142578,47.10691452026367
246,537264268,84.37070465087891,48.42092895507812,-144.87757873535156,-10.73443412780762,3.92179012298584,2.39589500427246,92.71024322509766,-90.45037841796875,48.74723052978516
247,537272601,84.33123016357422,48.03442001342773,-145.85757446289062,-10.32006645202637,4.15289783477783,1.68908798694611,84.36878204345703,-81.09660339355469,45.06242370605469
248,537280934,84.22265625000000,47.62313842773438,-146.75909423828125,-9.61449623107910,4.39550924301147,1.20185983181000,66.22190093994141,-76.13833618164062,40.44057083129883
249,537289267,83.99811553955078,47.28340148925781,-147.67279052734375,-9.25162220001221,4.34564018249512,1.80298805236816,55.02185821533203,-76.51120758056641,38.37084579467773
250,537297600,83.78974914550781,46.94233322143555,-148.48330688476562,-8.54069805145264,3.55752897262573,1.36004686355591,45.32474136352539,-69.13307189941406,32.22219848632812
251,537305933,83.50759124755859,46.69965744018555,-149.28060913085938,-8.09692287445068,2.79033493995667,0.94116866588593,36.82281112670898,-66.92364501953125,25.85352897644043
252,537314266,83.29154968261719,46.46242523193359,-150.00352478027344,-7.30176734924316,2.60518312454224,0.34555405378342,36.14776992797852,-61.47676467895508,19.98523330688477
253,537322599,83.13912963867188,46.31629943847656,-150.64851379394531,-6.92925930023193,3.29972124099731,0.64794814586639,38.30274581909180,-53.81459808349609,14.11110496520996
254,537330932,83.01076507568359,46.16794586181641,-151.23182678222656,-7.07255744934082,3.73610353469849,1.09705507755280,34.20680999755859,-49.18307876586914,10.38907909393311
255,537339265,82.87754821777344,46.06130599975586,-151.76652526855469,-7.21751070022583,3.77002453804016,1.77736282348633,30.50266647338867,-44.51362228393555,9.21807575225830
256,537347598,82.77405548095703,45.94718170166016,-152.27438354492188,-7.83450460433960,3.92177224159241,1.77475261688232,30.47158813476562,-42.69471359252930,6.84949350357056
257,537355931,82.64173889160156,45.88235473632812,-152.77342224121094,-7.89408445358276,3.23714208602905,1.66075050830841,27.14895629882812,-41.13977432250977,3.62107896804810
258,537364264,82.51135253906250,45.82318115234375,-153.24574279785156,-8.18391895294189,2.94953751564026,1.36697053909302,24.07258605957031,-39.05039596557617,0.48782396316528
259,537372597,82.38250732421875,45.79149627685547,-153.72349548339844,-8.33314037322998,2.66237664222717,1.66997218132019,25.45717811584473,-38.98662948608398,-0.85884702205658
260,537380930,82.29299926757812,45.77032089233398,-154.15328979492188,-8.25189018249512,2.55056905746460,1.26165676116943,25.27338981628418,-34.97711563110352,-3.73310136795044
261,537389263,82.19606018066406,45.76683807373047,-154.58865356445312,-8.54345130920410,2.52372908592224,1.24421715736389,25.46547126770020,-35.07875061035156,-4.29671812057495
262,537397596,82.13109588623047,45.74611663818359,-155.00852966308594,-8.83398246765137,2.12544107437134,1.10628139972687,27.34857940673828,-34.15855026245117,-3.78576421737671
263,537405929,82.09970092773438,45.75239562988281,-155.37625122070312,-9.10780429840088,1.80847728252411,0.73736882209778,27.37183189392090,-29.34347915649414,-5.06637430191040
264,537414262,82.03724670410156,45.73450088500977,-155.80720520019531,-10.13993453979492,1.89933192729950,1.56531369686127,28.59362030029297,-35.03662490844727,-4.31088399887085
265,537422595,81.94435882568359,45.73250961303711,-156.27812194824219,-10.56058597564697,1.56228280067444,1.48176968097687,28.75445556640625,-38.06802749633789,-5.55899143218994
266,537430928,81.81388854980469,45.73617553710938,-156.77278137207031,-11.06106376647949,1.46228957176208,1.12351036071777,25.89641380310059,-39.95290374755859,-7.75088262557983
267,537439261,81.63865661621094,45.74757766723633,-157.31951904296875,-11.22466278076172,1.53880274295807,1.65601480007172,25.32727241516113,-44.11754989624023,-8.38145732879639
268,537447594,81.43507385253906,45.75119781494141,-157.92102050781250,-11.45596504211426,1.99788105487823,1.80671525001526,26.31945610046387,-48.75698471069336,-9.30534458160400
269,537455927,81.21736907958984,45.75390625000000,-158.56300354003906,-11.10851001739502,2.01506233215332,2.32375478744507,28.37327003479004,-52.10215377807617,-8.97512817382812
270,537464260,81.01998138427734,45.77672576904297,-159.15238952636719,-10.86472988128662,2.52180147171021,1.71478223800659,26.03341674804688,-47.32626724243164,-11.78803539276123
271,537472593,80.77131652832031,45.77925491333008,-159.79681396484375,-10.79940128326416,2.25170826911926,2.47531151771545,24.87722015380859,-52.22978591918945,-9.48280239105225
272,537480926,80.57118988037109,45.82112884521484,-160.37425231933594,-10.79260253906250,2.13628458976746,1.52131521701813,24.70600128173828,-45.85950088500977,-14.25435638427734
273,537489259,80.36064910888672,45.87167358398438,-160.96203613281250,-10.75782489776611,1.65492880344391,1.61390972137451,24.61830139160156,-46.47848129272461,-14.85234928131104
274,537497592,80.18774414062500,45.92110443115234,-161.54345703125000,-11.28493309020996,1.87017893791199,1.59897387027740,28.39623451232910,-45.86212921142578,-15.51681327819824
275,537505925,80.05577850341797,46.01465225219727,-162.05624389648438,-10.58724975585938,1.66777956485748,1.12124359607697,27.45036125183105,-39.21076965332031,-19.85891532897949
276,537514258,79.85743713378906,46.08185958862305,-162.63325500488281,-11.63306045532227,2.32578396797180,1.66881644725800,25.29541206359863,-44.94917678833008,-17.12320899963379
277,537522591,79.71678924560547,46.14460754394531,-163.22494506835938,-11.24261665344238,1.26646935939789,2.62785220146179,33.53087234497070,-46.15359497070312,-16.98587799072266
278,537530924,79.60109710693359,46.25332260131836,-163.77641296386719,-11.53911399841309,2.10899734497070,2.01373910903931,32.92092514038086,-41.72933959960938,-22.52506065368652
279,537539257,79.42543029785156,46.30245208740234,-164.38246154785156,-11.57626819610596,1.38873720169067,3.06250500679016,30.52766036987305,-47.35784149169922,-16.41014099121094
280,537547590,79.30289459228516,46.37876510620117,-164.97177124023438,-12.01835918426514,1.75487291812897,2.56429314613342,35.67622756958008,-45.33172988891602,-18.90000915527344
281,537555923,79.15262603759766,46.44062042236328,-165.59498596191406,-12.15565586090088,1.97402286529541,3.20697665214539,35.36378860473633,-48.30879592895508,-17.83640480041504
282,537564256,78.93711853027344,46.46669769287109,-166.29275512695312,-13.26206207275391,2.62281703948975,3.73796844482422,33.87514495849609,-55.05493927001953,-15.50658512115479
283,537572589,78.73704528808594,46.52784729003906,-166.96549987792969,-12.78407382965088,2.21918654441833,3.38287997245789,33.59131240844727,-52.10874176025391,-19.42598342895508
284,537580922,78.49539184570312,46.58252716064453,-167.66230773925781,-13.00209331512451,3.17057394981384,3.29854702949524,30.93584632873535,-54.09507751464844,-18.71398353576660
285,537589255,78.23400115966797,46.62706756591797,-168.38493347167969,-12.62930870056152,2.02748060226440,3.37326717376709,30.89454078674316,-56.31591033935547,-18.20251846313477
286,537597588,78.04178619384766,46.70949172973633,-169.06956481933594,-12.05509471893311,1.28499352931976,2.49131560325623,35.73677444458008,-52.15664672851562,-22.73978996276855
287,537605921,77.90837860107422,46.84176635742188,-169.69371032714844,-11.30006313323975,-0.34039506316185,1.73235416412354,37.60968780517578,-45.87437057495117,-27.68384170532227
288,537614254,77.81847381591797,47.00135040283203,-170.30688476562500,-11.42346382141113,-0.94324666261673,1.59265935420990,42.19569015502930,-44.13317871093750,-30.25191879272461
289,537622587,77.75838470458984,47.14543151855469,-170.96319580078125,-12.23537349700928,-0.90131682157516,2.41525077819824,49.69364547729492,-47.80795288085938,-29.20810890197754
290,537630920,77.79837799072266,47.32583618164062,-171.52288818359375,-11.33862304687500,-1.03444194793701,1.89437854290009,53.14654541015625,-39.00482177734375,-32.28589630126953
291,537639253,77.84288024902344,47.45115661621094,-172.08923339843750,-11.92003154754639,0.48123490810394,2.35483264923096,54.40017700195312,-40.81812286376953,-25.88050079345703
292,537647586,77.96379852294922,47.58870697021484,-172.57435607910156,-11.40607547760010,0.30045491456985,1.95193159580231,56.67374038696289,-34.01642990112305,-25.33518981933594
293,537655919,78.12675476074219,47.71341705322266,-173.02409362792969,-11.56319236755371,1.48978841304779,1.94298481941223,58.68868255615234,-31.51906967163086,-23.13321495056152
294,537664252,78.30888366699219,47.81941986083984,-173.43725585937500,-11.55989933013916,1.27645874023438,2.61067438125610,57.60440826416016,-29.04819679260254,-20.73688125610352
295,537672585,78.59114837646484,47.96992492675781,-173.74804687500000,-11.26392459869385,1.93122684955597,1.78397774696350,60.57861328125000,-19.89957618713379,-24.17747688293457
296,537680918,78.91435241699219,48.14542007446289,-173.96881103515625,-10.63678836822510,1.70323467254639,1.94541418552399,57.72203063964844,-12.29510688781738,-25.08101081848145
297,537689251,79.28221130371094,48.34991455078125,-174.10760498046875,-10.70429420471191,2.14284014701843,1.51687479019165,55.78701019287109,-5.28251886367798,-27.17784881591797
298,537697584,79.65545654296875,48.54524230957031,-174.26823425292969,-11.19962787628174,2.07703804969788,2.50832676887512,58.24891281127930,-7.30956029891968,-26.86410331726074
299,537705917,80.06059265136719,48.76948928833008,-174.38334655761719,-11.94150161743164,2.93392825126648,2.00926542282104,58.02848052978516,-3.26149845123291,-29.57433700561523
300,537714250,80.46170806884766,48.97425460815430,-174.48454284667969,-11.89485836029053,3.23171234130859,1.72753334045410,56.49600982666016,-2.74913382530212,-26.57127380371094
301,537722583,80.96284484863281,49.22076797485352,-174.46745300292969,-11.41069412231445,3.69673132896423,0.25998914241791,57.80835723876953,7.06198740005493,-29.98721504211426
302,537730916,81.49667358398438,49.46245956420898,-174.40657043457031,-11.31549167633057,3.65443491935730,0.99420541524887,57.55403137207031,10.10148525238037,-29.42297744750977
303,537739249,82.06286621093750,49.72217178344727,-174.30364990234375,-11.69455623626709,4.22797155380249,0.74300628900528,57.57471084594727,13.35904121398926,-31.18230438232422
304,537747582,82.59493255615234,49.97599029541016,-174.25344848632812,-11.64489841461182,3.77605652809143,1.64566195011139,58.41946411132812,8.89056873321533,-30.69788169860840
305,537755915,83.14308166503906,50.25644302368164,-174.18864440917969,-11.63719654083252,3.88898682594299,1.59842896461487,58.98906707763672,10.10018253326416,-33.81561660766602
306,537764248,83.65270233154297,50.53399658203125,-174.12681579589844,-11.31206035614014,3.59855628013611,1.45860564708710,54.47037506103516,9.50181388854980,-34.02880096435547
307,537772581,84.19739532470703,50.79876327514648,-174.02986145019531,-10.98931503295898,4.16514730453491,0.38015532493591,55.40428543090820,11.66891574859619,-32.29486846923828
308,537780914,84.70390319824219,51.01504516601562,-174.02395629882812,-11.30547523498535,3.72812199592590,1.00351727008820,59.40253067016602,3.92858529090881,-26.84934997558594
309,537789247,85.25612640380859,51.21826934814453,-174.04454040527344,-11.72204971313477,3.86974954605103,1.29205548763275,67.34198760986328,1.56297492980957,-25.51460838317871
310,537797580,85.83397674560547,51.42741775512695,-174.07086181640625,-11.84438419342041,3.61592698097229,1.26608645915985,70.84523773193359,0.95273905992508,-26.65978622436523
311,537805913,86.44779968261719,51.63108444213867,-174.10720825195312,-12.41868877410889,4.11809635162354,1.25491714477539,76.11166381835938,-0.08990647643805,-26.05184745788574
312,537814246,87.05260467529297,51.83334350585938,-174.19358825683594,-12.37703227996826,4.12195873260498,1.28335130214691,79.86157989501953,-4.05409288406372,-25.70335578918457
313,537822579,87.69918060302734,52.03022003173828,-174.27416992187500,-12.32754135131836,4.15054750442505,0.95986974239349,84.36553192138672,-3.89920473098755,-24.99385070800781
314,537830912,88.36827087402344,52.22599792480469,-174.35095214843750,-12.04432678222656,3.96113824844360,0.78645426034927,86.60301208496094,-3.87991809844971,-25.15955543518066
315,537839245,89.09292602539062,52.44638824462891,-174.35772705078125,-11.24355697631836,3.96737170219421,-0.14385464787483,86.63854217529297,1.05978381633759,-27.93754386901855
316,537847578,89.80027008056641,52.65508270263672,-174.42311096191406,-11.00137424468994,4.38535737991333,0.42034408450127,90.23102569580078,-3.52536535263062,-26.23248100280762
317,537855911,90.51497650146484,52.86104583740234,-174.52441406250000,-10.23108196258545,4.36824750900269,0.59769338369370,94.58166503906250,-6.44047212600708,-25.86094093322754
318,537864244,91.26903533935547,53.06293487548828,-174.60040283203125,-10.07886409759521,4.56858444213867,0.32089927792549,96.80094146728516,-4.90258264541626,-25.62581062316895
319,537872577,92.03230285644531,53.26799774169922,-174.68572998046875,-10.13131332397461,4.50360298156738,0.40288147330284,98.82658386230469,-5.87680435180664,-25.90468025207520
320,537880910,92.82673645019531,53.47716522216797,-174.75939941406250,-10.12461376190186,4.74940490722656,0.85384124517441,101.53369140625000,-5.32627534866333,-26.05259132385254
321,537889243,93.62079620361328,53.70812225341797,-174.81094360351562,-9.84211158752441,4.57813167572021,0.64617311954498,99.38215637207031,-4.21980619430542,-28.68239974975586
322,537897576,94.43304443359375,53.94320297241211,-174.84048461914062,-9.61166763305664,4.63502073287964,0.54384613037109,99.36334228515625,-3.10275793075562,-29.48397445678711
323,537905909,95.26869201660156,54.18915557861328,-174.83547973632812,-9.45182895660400,4.68394851684570,0.55715417861938,98.92691040039062,-1.15178060531616,-30.67756271362305
324,537914242,96.11997222900391,54.44145584106445,-174.81027221679688,-9.43934059143066,4.76618003845215,0.38024568557739,98.72801208496094,-0.28140062093735,-31.79317855834961
325,537922575,96.99558258056641,54.71147537231445,-174.72866821289062,-9.09645366668701,4.75796604156494,0.16071334481239,96.18868255615234,2.96347904205322,-34.10449218750000
326,537930908,97.88363647460938,54.99088287353516,-174.60279846191406,-8.88938426971436,4.72817564010620,-0.36061123013496,93.24953460693359,5.24411201477051,-35.86367797851562
327,537939241,98.76940917968750,55.27259445190430,-174.47332763671875,-8.65114974975586,4.53157091140747,-0.54232084751129,92.66346740722656,4.89921379089355,-36.01920318603516
328,537947574,99.70267486572266,55.54666900634766,-174.29875183105469,-8.49986267089844,4.55467081069946,-0.67514449357986,93.77738189697266,7.42546749114990,-35.86283874511719
329,537955907,100.67145538330078,55.80726242065430,-174.09376525878906,-8.64853954315186,4.68489980697632,-0.29076007008553,95.02992248535156,9.13846111297607,-34.53898239135742
330,537964240,101.63512420654297,56.06188964843750,-173.88809204101562,-8.90481472015381,4.77338314056396,0.08227611333132,94.23146820068359,8.61774253845215,-34.13921356201172
331,537972573,102.61309051513672,56.32209396362305,-173.63244628906250,-8.81387519836426,4.64599037170410,-0.32906484603882,90.95561981201172,11.14665412902832,-35.44310379028320
332,537980906,103.63540649414062,56.57479095458984,-173.30906677246094,-8.80223369598389,4.51529216766357,-0.54597002267838,89.37071228027344,14.96417999267578,-35.89178466796875
333,537989239,104.70768737792969,56.81899642944336,-172.90931701660156,-8.65684127807617,4.34497547149658,-1.11443209648132,87.67555999755859,19.38108253479004,-36.19841384887695
334,537997572,105.80257415771484,57.04012298583984,-172.48387145996094,-8.85251140594482,4.43923425674438,-1.03005504608154,87.63839721679688,20.85772514343262,-34.41917419433594
335,538005905,106.89329528808594,57.24610900878906,-172.04928588867188,-8.83861637115479,4.46799707412720,-1.11423981189728,86.16801452636719,21.20245361328125,-33.03664016723633
336,538014238,107.97542572021484,57.43195343017578,-171.62226867675781,-8.79819583892822,4.49114227294922,-1.22299456596375,85.74922943115234,20.66604614257812,-31.05253410339355
337,538022571,109.06800079345703,57.60726547241211,-171.17765808105469,-8.57268619537354,4.34592342376709,-1.71187412738800,85.18384552001953,21.49953651428223,-30.40812301635742
338,538030904,110.18688201904297,57.75386047363281,-170.69256591796875,-8.36829376220703,4.24287605285645,-1.48706841468811,84.10488891601562,24.36831092834473,-28.51570510864258
339,538039237,111.28439331054688,57.87924194335938,-170.23559570312500,-8.48515319824219,4.20727348327637,-0.66580486297607,84.37889099121094,22.99040412902832,-25.78203201293945
340,538047570,112.36380004882812,58.00310897827148,-169.80230712890625,-8.33713054656982,3.96602845191956,-0.66286081075668,84.49362945556641,21.05791091918945,-25.55043411254883
341,538055903,113.40061950683594,58.11758804321289,-169.38684082031250,-8.24944972991943,3.89677357673645,-0.78647655248642,81.18746948242188,19.97384643554688,-24.29401206970215
342,538064236,114.33834075927734,58.22210311889648,-169.06367492675781,-8.54262542724609,3.89814925193787,-0.49236279726028,78.60755157470703,14.58966159820557,-21.23660850524902
343,538072569,115.20735931396484,58.32914733886719,-168.79539489746094,-8.49375915527344,3.99485301971436,-0.37589439749718,76.01080322265625,10.98929786682129,-20.13538360595703
344,538080902,116.09385681152344,58.42346572875977,-168.46499633789062,-8.22216320037842,4.18587112426758,-0.70670682191849,71.65009307861328,14.80516433715820,-20.69258880615234
345,538089235,116.98628997802734,58.49794769287109,-168.08163452148438,-8.11610889434814,4.23329257965088,-1.04036343097687,66.97314453125000,18.55223464965820,-20.14167022705078
346,538097568,117.79482269287109,58.55534362792969,-167.74250793457031,-8.13946342468262,3.73869657516479,-1.18898344039917,61.34815979003906,16.66154670715332,-17.37988853454590
347,538105901,118.52702331542969,58.61071395874023,-167.44494628906250,-7.83343029022217,3.08693742752075,-1.49391877651215,56.48934173583984,14.28304290771484,-16.04222297668457
348,538114234,119.31955718994141,58.64223480224609,-167.03878784179688,-6.87330245971680,2.44299626350403,-2.85828328132629,52.52221298217773,21.34462356567383,-17.07119750976562
349,538122567,120.16573333740234,58.62445831298828,-166.59205627441406,-7.16499757766724,2.69284462928772,-2.26021313667297,54.84420013427734,26.30326080322266,-13.39598369598389
350,538130900,120.95111846923828,58.59610366821289,-166.23951721191406,-8.04395771026611,2.72864556312561,-1.21310675144196,57.16231918334961,21.66670799255371,-9.76261711120605
351,538139233,121.70879364013672,58.57489013671875,-165.91516113281250,-8.37708473205566,2.52862882614136,-1.49840247631073,56.79502487182617,19.65677261352539,-9.77255344390869
352,538147566,122.53246307373047,58.53201675415039,-165.48562622070312,-7.92806148529053,2.35920715332031,-2.09418344497681,53.89693832397461,26.47315025329590,-11.43072223663330
353,538155899,123.34700012207031,58.45616149902344,-165.05923461914062,-8.30540752410889,2.67154932022095,-1.57510054111481,53.18666458129883,28.40199089050293,-8.30426502227783
354,538164232,124.06126403808594,58.38170623779297,-164.73542785644531,-8.85018444061279,2.75330495834351,-1.17819535732269,51.63811874389648,22.85002136230469,-5.34931707382202
355,538172565,124.74802398681641,58.30381393432617,-164.41470336914062,-8.44886875152588,2.87885713577271,-1.73714303970337,48.71910476684570,22.96423149108887,-5.10175371170044
356,538180898,125.39441680908203,58.21325302124023,-164.09146118164062,-8.11389446258545,2.89252853393555,-2.30818176269531,43.61285018920898,23.90598106384277,-4.32115602493286
357,538189231,126.02059936523438,58.09899520874023,-163.77474975585938,-7.98077964782715,2.89219379425049,-2.23169207572937,41.94192886352539,25.29289627075195,-1.95995438098907
358,538197564,126.57489776611328,57.96466064453125,-163.54603576660156,-8.68120098114014,2.71773862838745,-1.33684039115906,42.26424789428711,22.21510314941406,2.90170145034790
359,538205897,127.11973571777344,57.82965469360352,-163.33418273925781,-8.74930191040039,2.32210016250610,-1.64789998531342,42.89497375488281,21.55392456054688,3.45837664604187
360,538214230,127.66903686523438,57.68075180053711,-163.08898925781250,-8.72052860260010,2.39172315597534,-1.93216967582703,40.06106185913086,24.28465843200684,3.17359685897827
361,538222563,128.18077087402344,57.55108642578125,-162.86752319335938,-8.63199710845947,2.29629611968994,-1.95066893100739,38.04433441162109,21.80903244018555,2.14023947715759
362,538230896,128.70072937011719,57.43092346191406,-162.66186523437500,-8.27604770660400,2.34473848342896,-1.95526850223541,40.61796188354492,20.31659507751465,1.56158733367920
363,538239229,129.19479370117188,57.31057357788086,-162.50624084472656,-8.45505237579346,2.60732388496399,-1.49912047386169,42.62535858154297,17.93180465698242,3.51344728469849
364,538247562,129.60870361328125,57.20980453491211,-162.44143676757812,-8.88714408874512,2.28736114501953,-1.55923950672150,42.15729904174805,11.88683223724365,5.18482971191406
365,538255895,130.01623535156250,57.12696075439453,-162.40151977539062,-8.94896030426025,1.90804493427277,-2.17255067825317,43.96010971069336,9.38308715820312,4.59664869308472
366,538264228,130.43647766113281,57.04201889038086,-162.36663818359375,-9.12073898315430,1.71581554412842,-2.21189808845520,45.94653320312500,9.28075981140137,4.82384824752808
367,538272561,130.83261108398438,56.96906661987305,-162.36239624023438,-9.27260875701904,1.58345592021942,-2.14798402786255,46.17278289794922,6.94839954376221,5.09036493301392
368,538280894,131.19561767578125,56.91613388061523,-162.40071105957031,-9.23829841613770,1.15677547454834,-2.12270832061768,46.44619369506836,3.23455905914307,4.94987106323242
369,538289227,131.57101440429688,56.86997222900391,-162.43518066406250,-8.79704093933105,0.93613630533218,-2.22518467903137,47.56394958496094,3.00917911529541,4.28174829483032
370,538297560,131.96298217773438,56.81191253662109,-162.47410583496094,-8.41402816772461,0.97862643003464,-2.27713704109192,49.97951126098633,3.69318366050720,5.40946912765503
371,538305893,132.35441589355469,56.74636840820312,-162.54904174804688,-8.22399711608887,1.22008204460144,-2.17321038246155,53.54161453247070,2.67458152770996,7.78468608856201
372,538314226,132.74929809570312,56.66497802734375,-162.65155029296875,-8.09655189514160,1.38620209693909,-2.22619247436523,56.69957351684570,2.58903050422668,10.27089023590088
373,538322559,133.16500854492188,56.56227111816406,-162.77656555175781,-8.17925071716309,1.97626602649689,-1.97695672512054,61.44092559814453,3.31522297859192,13.15655231475830
374,538330892,133.53660583496094,56.45936965942383,-162.97262573242188,-8.62455940246582,2.25550031661987,-1.54929482936859,63.23408889770508,0.10108696669340,16.53122138977051
375,538339225,133.87625122070312,56.37962341308594,-163.22087097167969,-8.46473979949951,2.04995608329773,-1.95447230339050,64.60937500000000,-4.24140071868896,16.94968414306641
376,538347558,134.21685791015625,56.28946685791016,-163.47930908203125,-8.15200805664062,2.00371289253235,-2.14616870880127,65.71559143066406,-3.87637138366699,18.23870277404785
377,538355891,134.53768920898438,56.19022369384766,-163.75917053222656,-8.07557582855225,1.84972977638245,-2.08438825607300,65.45359039306641,-4.04957628250122,20.07745361328125
378,538364224,134.84750366210938,56.09906387329102,-164.08538818359375,-8.01286220550537,1.39439117908478,-2.42345952987671,68.71726989746094,-6.74167203903198,21.76104354858398
379,538372557,135.16864013671875,55.99771118164062,-164.43370056152344,-7.84627676010132,1.22429943084717,-2.72188878059387,72.25188446044922,-6.83619260787964,23.76425361633301
380,538380890,135.47254943847656,55.87693023681641,-164.83146667480469,-8.09951114654541,0.99751996994019,-2.37474322319031,75.04280090332031,-7.53498268127441,27.71003532409668
381,538389223,135.80752563476562,55.73439025878906,-165.23593139648438,-8.15831279754639,0.88745558261871,-2.18548870086670,79.36973571777344,-5.88247489929199,29.97218894958496
382,538397556,136.15223693847656,55.58253860473633,-165.65930175781250,-8.51694488525391,1.54788422584534,-2.33307933807373,82.33922576904297,-5.73386240005493,31.92473793029785
383,538405889,136.44039916992188,55.43743133544922,-166.17213439941406,-8.56597042083740,1.82665479183197,-2.34775018692017,84.30392456054688,-10.40127468109131,35.87445068359375
384,538414222,136.71844482421875,55.29979324340820,-166.74475097656250,-8.42478561401367,1.91847527027130,-2.28141713142395,88.93559265136719,-13.88918018341064,38.22697067260742
385,538422555,137.00804138183594,55.16606521606445,-167.33747863769531,-8.20145606994629,2.14933371543884,-2.39928483963013,92.21296691894531,-15.06468772888184,39.08228302001953
386,538430888,137.32124328613281,55.02445983886719,-167.94003295898438,-7.95175409317017,2.29118776321411,-2.64759898185730,95.88846588134766,-14.56759834289551,40.54053878784180
387,538439221,137.65434265136719,54.86440277099609,-168.54634094238281,-7.97423601150513,2.21162509918213,-2.96341443061829,98.56318664550781,-13.12356281280518,42.29664611816406
388,538447554,137.97918701171875,54.70393753051758,-169.18586730957031,-8.05476665496826,1.78748917579651,-3.25624561309814,100.69123077392578,-14.35104370117188,44.37187957763672
389,538455887,138.32296752929688,54.53012847900391,-169.82984924316406,-7.91204643249512,1.18603944778442,-3.47316741943359,103.29147338867188,-13.36092090606689,45.76066589355469
390,538464220,138.70376586914062,54.32484436035156,-170.46554565429688,-8.18007850646973,0.93178403377533,-3.26783132553101,106.74534606933594,-9.83634376525879,48.20330429077148
391,538472553,139.10647583007812,54.10828781127930,-171.11315917968750,-8.74343299865723,0.80750042200089,-2.82865977287292,110.35704040527344,-9.17570114135742,49.97175598144531
392,538480886,139.52279663085938,53.89413833618164,-171.78495788574219,-9.00413322448730,0.90505230426788,-2.81977081298828,114.21126556396484,-10.44528388977051,51.19682693481445
393,538489219,139.93583679199219,53.68155670166016,-172.50679016113281,-9.40181827545166,1.54081571102142,-2.71242880821228,118.48609161376953,-12.65859317779541,54.05022048950195
394,538497552,140.33662414550781,53.49361801147461,-173.28465270996094,-9.52619075775146,1.88865053653717,-2.72499752044678,122.17260742187500,-17.07242012023926,55.62244796752930
395,538505885,140.74032592773438,53.33700180053711,-174.10594177246094,-9.34721279144287,2.12158894538879,-2.90222024917603,126.55345153808594,-21.68441200256348,55.94571685791016
396,538514218,141.15293884277344,53.18725204467773,-174.94692993164062,-9.05774116516113,2.43465495109558,-3.05031323432922,129.42039489746094,-23.12520027160645,56.71399688720703
397,538522551,141.57322692871094,53.04537200927734,-175.80474853515625,-8.84288883209229,2.41723489761353,-3.18042469024658,131.80242919921875,-24.32227516174316,57.40409851074219
398,538530884,142.00160217285156,52.90958404541016,-176.68455505371094,-8.80066585540771,2.19819164276123,-3.42182612419128,134.66258239746094,-25.36286354064941,58.66469192504883
399,538539217,142.43551635742188,52.76829528808594,-177.59495544433594,-9.11041545867920,1.96776926517487,-3.16520786285400,138.08903503417969,-25.86260986328125,61.17541503906250
400,538547550,142.88027954101562,52.62960052490234,-178.50558471679688,-9.21062374114990,1.75189876556396,-2.68912625312805,139.32777404785156,-25.98203849792480,61.25707244873047
401,538555883,143.35644531250000,52.48450088500977,-179.37284851074219,-9.51584243774414,1.55931830406189,-2.35243272781372,138.80162048339844,-23.08944892883301,59.57431030273438
402,538564216,143.80564880371094,52.35772705078125,179.73110961914062,-10.20360946655273,1.72443437576294,-2.48963356018066,138.07843017578125,-25.51240730285645,60.42444992065430
403,538572549,144.20890808105469,52.28799819946289,178.75526428222656,-10.48942375183105,1.62820327281952,-2.89328885078430,140.03419494628906,-34.09223175048828,61.45982742309570
404,538580882,144.54873657226562,52.27651977539062,177.65438842773438,-10.49660778045654,1.71829760074615,-3.12091040611267,144.31219482421875,-44.99847412109375,65.01351928710938
405,538589215,144.83229064941406,52.29967117309570,176.45703125000000,-10.11353683471680,2.04677867889404,-3.36191225051880,146.72407531738281,-52.11151885986328,68.63129425048828
406,538597548,145.07649230957031,52.36611938476562,175.18598937988281,-9.84920692443848,2.04360675811768,-3.53164124488831,148.97415161132812,-58.81723785400391,70.33667755126953
407,538605881,145.27488708496094,52.46079635620117,173.84866333007812,-9.39227008819580,1.79166543483734,-3.81272220611572,149.92715454101562,-63.98567199707031,72.49358367919922
408,538614214,145.46797180175781,52.53128433227539,172.50155639648438,-9.03091812133789,1.76887118816376,-3.79405140876770,150.44161987304688,-61.93448257446289,74.69238281250000
409,538622547,145.70095825195312,52.57778167724609,171.21803283691406,-8.65515327453613,1.56712615489960,-4.08033800125122,149.27380371093750,-56.57843017578125,72.61531066894531
410,538630880,146.01710510253906,52.57835769653320,170.01588439941406,-8.46184921264648,1.75273036956787,-4.00414705276489,151.44212341308594,-48.00261306762695,71.12219238281250
411,538639213,146.33906555175781,52.55003738403320,168.82701110839844,-9.39223098754883,2.25690007209778,-3.34577393531799,150.82235717773438,-44.18151855468750,72.52404785156250
412,538647546,146.67810058593750,52.52812957763672,167.65803527832031,-9.36973571777344,1.93069589138031,-3.79850625991821,151.06115722656250,-43.93729782104492,71.11987304687500
413,538655879,147.02531433105469,52.50342559814453,166.45437622070312,-9.92018985748291,2.41496825218201,-3.46290421485901,155.31101989746094,-44.62948608398438,73.72697448730469
414,538664212,147.34761047363281,52.49488830566406,165.23033142089844,-10.10850811004639,2.43190670013428,-3.93403124809265,154.12620544433594,-46.31909561157227,74.28419494628906
415,538672545,147.63539123535156,52.50243377685547,163.93502807617188,-10.30327129364014,2.76779794692993,-4.12336492538452,156.75698852539062,-50.32580947875977,77.88393402099609
416,538680878,147.88259887695312,52.53625869750977,162.61650085449219,-10.51520061492920,1.97762596607208,-4.22410583496094,154.25329589843750,-53.84731292724609,77.78226470947266
417,538689211,148.15612792968750,52.56176757812500,161.28672790527344,-10.28401947021484,1.90611219406128,-4.97828912734985,158.53744506835938,-53.03673934936523,79.19904327392578
418,538697544,148.39555358886719,52.59756088256836,159.93757629394531,-11.23604011535645,2.40803551673889,-4.10378313064575,156.19828796386719,-54.07062149047852,79.96296691894531
419,538705877,148.65435791015625,52.66765594482422,158.59989929199219,-10.86507415771484,2.08775591850281,-5.14884424209595,157.50630187988281,-56.71473693847656,77.23032379150391
420,538714210,148.89601135253906,52.74901962280273,157.19128417968750,-11.14775276184082,3.09571743011475,-4.22442197799683,162.50447082519531,-60.49178314208984,81.03123474121094
421,538722543,149.07925415039062,52.88861465454102,155.75881958007812,-11.44117832183838,2.60493564605713,-3.96425175666809,157.85272216796875,-66.55564117431641,78.95117187500000
422,538730876,149.27960205078125,53.00268173217773,154.31161499023438,-11.06103992462158,2.73710894584656,-3.80937361717224,161.66700744628906,-64.42078399658203,81.36923217773438
423,538739209,149.43655395507812,53.17928314208984,152.87854003906250,-12.40388679504395,2.67319774627686,-2.23654103279114,155.19259643554688,-69.50481414794922,76.55541229248047
424,538747542,149.74780273437500,53.33480072021484,151.56736755371094,-10.18826007843018,0.50802803039551,-5.29281473159790,162.46073913574219,-62.78979492187500,70.24910736083984
425,538755875,149.98077392578125,53.48032760620117,150.01332092285156,-13.30588626861572,3.70395421981812,-2.48911023139954,176.50137329101562,-69.51538848876953,85.85198974609375
426,538764208,150.14683532714844,53.68372344970703,148.48812866210938,-12.84525012969971,4.11564826965332,-3.53101873397827,166.23379516601562,-74.42458343505859,80.49517059326172
427,538772541,150.33662414550781,53.88144302368164,146.95161437988281,-12.08347892761230,4.14603853225708,-3.87003278732300,170.39779663085938,-73.25598144531250,81.28321838378906
428,538780874,150.45542907714844,54.09806442260742,145.35063171386719,-13.23907947540283,5.03323411941528,-3.22311449050903,168.69113159179688,-77.44902038574219,83.88361358642578
429,538789207,150.57678222656250,54.34806823730469,143.79693603515625,-13.10720062255859,3.71364355087280,-4.88764047622681,164.69248962402344,-78.31716156005859,78.56539154052734
430,538797540,150.69435119628906,54.61595535278320,142.24696350097656,-13.98991012573242,2.95722484588623,-4.84516191482544,164.52432250976562,-80.05126190185547,76.92620086669922
431,538805873,150.88728332519531,54.89108657836914,140.73817443847656,-13.49838733673096,2.06219887733459,-6.25627994537354,169.83610534667969,-78.33037567138672,73.49369049072266
432,538814206,151.02905273437500,55.23231506347656,139.14602661132812,-15.67906188964844,2.29789972305298,-4.94035720825195,172.66151428222656,-87.96432495117188,74.29916381835938
433,538822539,151.21315002441406,55.58044815063477,137.54292297363281,-14.62386703491211,1.51064419746399,-6.57000017166138,179.27586364746094,-87.84011077880859,73.87287139892578
434,538830872,151.41339111328125,55.93795394897461,135.89147949218750,-15.48572444915771,1.56066548824310,-6.34383487701416,186.88212585449219,-90.21543121337891,75.74376678466797
435,538839205,151.60704040527344,56.33269882202148,134.13008117675781,-16.25037574768066,1.96036541461945,-6.07315731048584,197.44468688964844,-96.28007507324219,79.27703857421875
436,538847538,151.81144714355469,56.74272537231445,132.31440734863281,-16.15765380859375,1.68421602249146,-6.51887226104736,205.32232666015625,-99.31590270996094,80.98597717285156
437,538855871,152.06913757324219,57.13200759887695,130.46244812011719,-16.00012207031250,1.81429660320282,-6.73014545440674,215.93603515625000,-96.73295593261719,83.41144561767578
438,538864204,152.38941955566406,57.52161407470703,128.59233093261719,-16.42197418212891,1.58601915836334,-7.32405424118042,226.36265563964844,-96.86724853515625,83.93035125732422
439,538872537,152.73568725585938,57.91075134277344,126.63602447509766,-16.85709381103516,2.76810026168823,-7.51898336410522,238.67623901367188,-97.66255950927734,88.10727691650391
440,538880870,153.06756591796875,58.36701965332031,124.56616210937500,-17.53510093688965,2.37612080574036,-7.74076986312866,249.80859375000000,-107.51755523681641,90.29914855957031
441,538889203,153.51110839843750,58.84949874877930,122.48038482666016,-15.98002624511719,1.64211797714233,-8.78536319732666,265.52584838867188,-108.76457977294922,88.76512908935547
442,538897536,153.96743774414062,59.37396621704102,120.28224182128906,-16.90913391113281,1.38016641139984,-8.51739788055420,280.15252685546875,-115.40473175048828,92.11346435546875
443,538905869,154.54403686523438,59.97098922729492,118.09692382812500,-15.30057811737061,0.50431013107300,-9.16982078552246,294.18789672851562,-120.51420593261719,86.48291015625000
444,538914202,155.25541687011719,60.59914016723633,115.98353576660156,-13.61313819885254,0.47262904047966,-9.06112670898438,304.65057373046875,-120.64073181152344,80.38484191894531
445,538922535,156.05329895019531,61.28084182739258,113.92201232910156,-12.22061443328857,0.18952631950378,-8.85431575775146,310.57101440429688,-122.56058502197266,74.05728912353516
446,538930868,156.97789001464844,61.96894073486328,112.01915740966797,-9.84974575042725,0.15289245545864,-9.88284683227539,310.88293457031250,-118.03023529052734,65.14646148681641
447,538939201,158.00549316406250,62.67444610595703,110.25385284423828,-7.89063644409180,0.18279290199280,-9.65450000762939,309.56240844726562,-114.47750091552734,56.83081817626953
448,538947534,159.13377380371094,63.35820770263672,108.67440032958984,-5.44989824295044,-0.36899340152740,-10.43831253051758,303.32058715820312,-106.85456085205078,48.59442901611328
449,538955867,160.36903381347656,63.94948959350586,107.33781433105469,-2.11618757247925,-0.31103411316872,-11.86076736450195,290.67825317382812,-89.91998291015625,40.59135818481445
450,538964200,161.48167419433594,64.35369873046875,105.88588714599609,-0.55016708374023,2.70673060417175,-11.29930210113525,289.34222412109375,-69.72051239013672,54.45841217041016
451,538972533,162.17506408691406,64.66545104980469,104.15900421142578,-0.20444837212563,5.47623395919800,-7.78523635864258,269.11755371093750,-62.24273681640625,71.47601318359375
452,538980866,162.71215820312500,64.90406036376953,102.35994720458984,1.24787104129791,4.55079841613770,-9.33808517456055,258.79159545898438,-54.09204864501953,77.57007598876953
453,538989199,163.28576660156250,65.07583618164062,100.67154693603516,3.01983594894409,6.54976797103882,-7.71516132354736,251.55564880371094,-43.80638885498047,74.34085845947266
454,538997532,163.89988708496094,65.18594360351562,99.16115570068359,4.89324140548706,7.51728916168213,-6.56982946395874,237.15695190429688,-33.25148391723633,67.90278625488281
455,539005865,164.41670227050781,65.25233459472656,97.62317657470703,4.52182197570801,8.39986705780029,-4.13385581970215,228.82431030273438,-27.96796417236328,70.65849304199219
456,539014198,164.66725158691406,65.34751892089844,95.94073486328125,3.83780884742737,8.88757133483887,-2.78358054161072,212.51651000976562,-32.54968643188477,76.78678894042969
457,539022531,164.68943786621094,65.43553161621094,94.14581298828125,3.64493393898010,8.33199977874756,-2.43306088447571,197.90618896484375,-33.17128372192383,82.09277343750000
458,539030864,164.52285766601562,65.51820373535156,92.28926086425781,3.06505346298218,8.24007415771484,-1.54619967937469,181.72476196289062,-33.16236114501953,85.03619384765625
459,539039197,164.14408874511719,65.62630462646484,90.34399414062500,1.67232990264893,7.12619686126709,-0.53065258264542,166.53900146484375,-37.90467834472656,87.73728942871094
460,539047530,163.55648803710938,65.81491851806641,88.20555877685547,-0.00447567971423,5.24574995040894,0.26220917701721,162.42713928222656,-50.13777542114258,93.57247161865234
461,539055863,162.77227783203125,66.08970642089844,85.86332702636719,-1.05586683750153,3.15878152847290,1.08778154850006,162.05543518066406,-64.09682464599609,98.31294250488281
462,539064196,161.85848999023438,66.43879699707031,83.31278991699219,-1.67416250705719,0.81014323234558,1.31590509414673,169.54499816894531,-76.37509155273438,103.16405487060547
463,539072529,160.86076354980469,66.80971527099609,80.60445404052734,-1.71198582649231,-0.29184782505035,1.40645611286163,178.06222534179688,-82.75197601318359,106.18051147460938
464,539080862,159.73075866699219,67.24438476562500,77.71839904785156,-2.39361929893494,-1.39891445636749,1.24874031543732,182.28565979003906,-93.71676635742188,108.18435668945312
465,539089195,158.49774169921875,67.72913360595703,74.67899322509766,-2.47525882720947,-1.19581532478333,0.81853204965591,188.33174133300781,-103.45943450927734,107.96099853515625
466,539097528,157.21328735351562,68.27947235107422,71.52872467041016,-1.98673498630524,0.09098825603724,0.20438294112682,195.41461181640625,-113.57092285156250,104.76751708984375
467,539105861,155.92753601074219,68.82828521728516,68.36050415039062,-1.61453950405121,1.51975810527802,-0.37215131521225,198.91107177734375,-115.02281951904297,99.61112976074219
468,539114194,154.58262634277344,69.31867980957031,65.11260223388672,-2.57907652854919,3.81812572479248,-1.68005144596100,201.68226623535156,-110.74337005615234,100.30902099609375
469,539122527,153.18312072753906,69.73746490478516,61.81490707397461,-3.58672690391541,5.21981287002563,-2.72538089752197,202.11068725585938,-105.38984680175781,100.38102722167969
470,539130860,151.99281311035156,70.04470825195312,58.74839782714844,-4.64111852645874,5.64049434661865,-3.92571830749512,201.74310302734375,-90.01219177246094,93.85140991210938
471,539139193,151.11528015136719,70.25122070312500,55.99549865722656,-6.31929016113281,5.36498022079468,-5.23437166213989,204.44187927246094,-74.26860046386719,85.35355377197266
472,539147526,150.42982482910156,70.36686706542969,53.48099517822266,-7.99161052703857,7.24340629577637,-5.17281150817871,201.14187622070312,-61.17611312866211,80.14438629150391
473,539155859,149.89282226562500,70.39733886718750,51.27794647216797,-8.88490486145020,8.30974578857422,-5.03060674667358,183.91050720214844,-46.81770324707031,73.31799316406250
474,539164192,149.47476196289062,70.34899902343750,49.34085845947266,-10.28209209442139,9.07187080383301,-4.71160554885864,167.80358886718750,-33.45072174072266,68.84741973876953
475,539172525,149.00875854492188,70.30584716796875,47.50596237182617,-12.08338642120361,10.12963771820068,-3.79390096664429,150.43966674804688,-32.50548171997070,64.86339569091797
476,539180858,148.34933471679688,70.35128784179688,45.65072631835938,-12.73117923736572,9.90523052215576,-3.48650193214417,129.79013061523438,-43.14337158203125,59.25351715087891
477,539189191,147.42796325683594,70.52391815185547,43.65227127075195,-12.45932579040527,9.28869915008545,-2.98869252204895,114.62843322753906,-59.73493576049805,54.94385147094727
478,539197524,146.31803894042969,70.78556823730469,41.60001373291016,-11.92096042633057,7.98413562774658,-2.60694527626038,98.20143890380859,-69.92535400390625,49.67954635620117
479,539205857,145.16165161132812,71.08896636962891,39.59843063354492,-11.64402294158936,6.63391304016113,-2.32278108596802,87.27675628662109,-73.29702758789062,42.85702133178711
480,539214190,144.00813293457031,71.39448547363281,37.70163726806641,-11.15605545043945,5.21823883056641,-2.61889386177063,76.25249481201172,-71.78656768798828,36.25841140747070
481,539222523,142.86184692382812,71.72119140625000,35.81446456909180,-11.06534862518311,3.97097849845886,-3.38769721984863,76.35865020751953,-73.62792968750000,31.97298240661621
482,539230856,141.71994018554688,72.06581115722656,33.90136337280273,-10.99323844909668,3.41323685646057,-4.23962068557739,80.20070648193359,-75.40531921386719,29.66871643066406
483,539239189,140.49397277832031,72.42007446289062,31.84623527526855,-10.95311450958252,3.19898605346680,-5.14841032028198,86.77642059326172,-79.35482025146484,30.36847877502441
484,539247522,139.13609313964844,72.75691223144531,29.59731101989746,-10.89946365356445,3.18483972549438,-5.63817119598389,93.61853790283203,-82.48735809326172,33.40545272827148
485,539255855,137.70103454589844,73.04637145996094,27.21430778503418,-10.67880725860596,3.16078615188599,-5.71814918518066,100.21890258789062,-81.34053802490234,37.64791870117188
486,539264188,136.21722412109375,73.27512359619141,24.74989700317383,-10.58194828033447,3.55660009384155,-4.79304170608521,104.01852416992188,-77.57537841796875,42.39845275878906
487,539272521,134.64958190917969,73.44704437255859,22.24087142944336,-10.24647903442383,3.89631843566895,-3.82706475257874,99.38447570800781,-74.24263000488281,45.46061325073242
488,539280854,133.09602355957031,73.55658721923828,19.70918846130371,-9.75756740570068,4.04976844787598,-3.44643354415894,103.96173858642578,-70.94239044189453,48.15312957763672
489,539289187,131.60310363769531,73.60699462890625,17.22183609008789,-9.30516242980957,4.78164052963257,-2.69774031639099,106.25735473632812,-66.09716796875000,50.18790054321289
490,539297520,130.09767150878906,73.60864257812500,14.74394321441650,-9.13018703460693,4.88036060333252,-2.94687128067017,103.63404083251953,-62.65101242065430,53.25357818603516
491,539305853,128.68063354492188,73.56185913085938,12.32341670989990,-8.71000766754150,4.94983243942261,-3.61495971679688,107.60575866699219,-58.92327117919922,54.94227981567383
492,539314186,127.46491241455078,73.44579315185547,10.10297870635986,-8.06179428100586,4.93429279327393,-4.05307912826538,108.63734436035156,-50.67945861816406,55.43411254882812
493,539322519,126.40769195556641,73.28723144531250,8.08755111694336,-7.92687892913818,4.83999156951904,-4.09132337570190,103.90222930908203,-43.65821075439453,54.58965682983398
494,539330852,125.46516418457031,73.11325073242188,6.22003030776978,-7.94010305404663,4.63376569747925,-4.42016220092773,100.46074676513672,-39.24116134643555,53.43468856811523
495,539339185,124.59994506835938,72.92615509033203,4.41279125213623,-7.86725282669067,4.61348104476929,-4.67265367507935,102.60983276367188,-38.02437973022461,53.25450897216797
496,539347518,123.78073120117188,72.71702575683594,2.64334082603455,-7.88033866882324,4.48337936401367,-4.73438644409180,103.56058502197266,-37.60558700561523,53.77397918701172
497,539355851,123.10707092285156,72.48489379882812,0.97448104619980,-7.78393411636353,4.21792793273926,-5.24189901351929,109.27093505859375,-34.51654815673828,54.00593948364258
498,539364184,122.53285980224609,72.23518371582031,-0.62563812732697,-8.51042366027832,4.70400571823120,-4.78602695465088,113.11015319824219,-31.70588874816895,55.23920440673828
499,539372517,121.91068267822266,71.97448730468750,-2.28822207450867,-9.66547107696533,4.78389120101929,-4.47110414505005,114.22137451171875,-34.23168563842773,57.67261505126953
500,539380850,121.23873138427734,71.70791625976562,-4.02448177337646,-10.51012802124023,5.10355234146118,-3.79627037048340,116.32524108886719,-38.57076644897461,59.02891921997070
501,539389183,120.58213043212891,71.44414520263672,-5.73983335494995,-10.94178581237793,5.38476085662842,-2.83541035652161,115.48767852783203,-39.61239624023438,58.33866882324219
502,539397516,119.93233489990234,71.21364593505859,-7.42992258071899,-10.87563228607178,5.47840595245361,-2.17010259628296,113.18626403808594,-41.19228363037109,55.12752151489258
503,539405849,119.26155090332031,71.02497863769531,-9.09608554840088,-10.16125965118408,5.38871765136719,-2.33854866027832,107.71788024902344,-44.12486648559570,50.16160202026367
504,539414182,118.60239410400391,70.85773468017578,-10.74828815460205,-9.42322731018066,5.50942182540894,-2.55229306221008,107.21725463867188,-47.03467941284180,46.65490722656250
505,539422515,118.03460693359375,70.69235229492188,-12.28211402893066,-8.94941902160645,5.88154840469360,-2.68757057189941,104.53649139404297,-44.02282333374023,43.96433639526367
506,539430848,117.52876281738281,70.53545379638672,-13.68184089660645,-9.01261234283447,6.19608831405640,-2.86787843704224,96.76521301269531,-39.60024261474609,41.16048431396484
507,539439181,116.97357177734375,70.39742279052734,-15.10568618774414,-9.04621601104736,6.37545633316040,-3.40490269660950,93.43338012695312,-42.25158309936523,39.40497589111328
508,539447514,116.44384002685547,70.24533843994141,-16.49370765686035,-8.79745864868164,6.64942789077759,-2.94462990760803,92.05718231201172,-42.01007461547852,39.23670196533203
509,539455847,115.96585083007812,70.08392333984375,-17.76425170898438,-8.79038143157959,6.29441928863525,-3.26470398902893,84.80494689941406,-37.99914550781250,37.88555526733398
510,539464180,115.49932098388672,69.92562103271484,-19.02677917480469,-8.97404289245605,6.93883562088013,-2.49819087982178,85.41410827636719,-37.46520996093750,38.12911987304688
511,539472513,114.92141723632812,69.79031372070312,-20.25815773010254,-9.06219863891602,6.23798656463623,-2.31121826171875,68.40325164794922,-38.16964340209961,34.88320541381836
512,539480846,114.25757598876953,69.68933868408203,-21.61083412170410,-8.44584655761719,5.24901056289673,-2.59737300872803,71.28152465820312,-46.22691726684570,32.03359985351562
513,539489179,113.60156250000000,69.58505249023438,-22.95402908325195,-8.14324092864990,5.26815700531006,-2.21720838546753,70.98437500000000,-46.34777069091797,31.76564979553223
514,539497512,113.04914855957031,69.48061370849609,-24.13710403442383,-7.96942090988159,4.23421716690063,-3.02236628532410,65.73884582519531,-39.66955184936523,29.68482208251953
515,539505845,112.60630798339844,69.35605621337891,-25.25013923645020,-7.85932874679565,4.40174388885498,-2.87126326560974,70.92469787597656,-36.52475738525391,30.51238059997559
516,539514178,112.20941925048828,69.20330047607422,-26.28424072265625,-8.02304744720459,3.99160361289978,-3.49840879440308,67.01737213134766,-33.80554199218750,31.27441978454590
517,539522511,111.96171569824219,69.01946258544922,-27.25011062622070,-8.18487358093262,5.05697393417358,-2.60229897499084,77.08616638183594,-30.23998069763184,33.55037307739258
518,539530844,111.61998748779297,68.81905364990234,-28.19017791748047,-8.96152496337891,5.60837793350220,-1.86131107807159,63.27856063842773,-27.79552650451660,35.91529464721680
519,539539177,111.04967498779297,68.65888977050781,-29.37108802795410,-8.70159721374512,4.86346578598022,-1.83560705184937,62.64794540405273,-39.92085266113281,35.11371231079102
520,539547510,110.55613708496094,68.49779510498047,-30.51293754577637,-7.78418397903442,4.96222066879272,-2.04166102409363,66.80149078369141,-40.17987823486328,33.41011047363281
521,539555843,110.23313140869141,68.31584167480469,-31.45825767517090,-7.73541879653931,4.86106872558594,-1.67372131347656,65.12673187255859,-31.78435707092285,32.54419708251953
522,539564176,109.84867858886719,68.15350341796875,-32.42002487182617,-7.93400096893311,3.70956587791443,-2.16496896743774,60.06951141357422,-32.57735443115234,31.47964286804199
523,539572509,109.57616424560547,67.98384857177734,-33.38151931762695,-7.45237779617310,3.20260667800903,-2.97214317321777,72.72433471679688,-33.98725128173828,31.24276161193848
524,539580842,109.45265197753906,67.77499389648438,-34.17464065551758,-7.94452571868896,4.31363058090210,-2.22192287445068,72.37395477294922,-24.45263671875000,34.11388778686523
525,539589175,109.35349273681641,67.54378509521484,-34.90367889404297,-8.40697002410889,3.74014592170715,-2.69210314750671,67.40073394775391,-22.48720932006836,34.77405548095703
526,539597508,109.23925781250000,67.33475494384766,-35.70390319824219,-8.26127052307129,4.37547206878662,-2.51938843727112,73.99562072753906,-25.52962875366211,34.36699676513672
527,539605841,109.14915466308594,67.11215209960938,-36.42654418945312,-8.50576019287109,5.30614042282104,-1.79361975193024,67.49005889892578,-23.29953956604004,33.83768844604492
528,539614174,108.96053314208984,66.92900085449219,-37.21258926391602,-8.31515789031982,5.12910699844360,-2.04411673545837,63.22836685180664,-26.67709159851074,31.31353569030762
529,539622507,108.72640228271484,66.75762939453125,-38.07773208618164,-7.74427938461304,5.26839208602905,-1.65823554992676,65.63601684570312,-32.37202072143555,30.20677566528320
530,539630840,108.44261932373047,66.60944366455078,-38.96113204956055,-7.68862867355347,4.78310489654541,-2.21827912330627,62.31569671630859,-33.15099334716797,28.74179840087891
531,539639173,108.31820678710938,66.43975067138672,-39.76462173461914,-7.54188060760498,4.63088655471802,-2.76006698608398,71.75910186767578,-30.42740058898926,28.98181152343750
532,539647506,108.21678161621094,66.24720764160156,-40.47500991821289,-8.48863697052002,5.09736299514771,-2.26991724967957,64.93041229248047,-24.28504180908203,31.17698669433594
533,539655839,108.00390625000000,66.06627655029297,-41.25489425659180,-8.84594535827637,4.22740793228149,-2.69671344757080,58.25439071655273,-29.64593696594238,29.93085670471191
534,539664172,107.79183959960938,65.92222595214844,-42.07916259765625,-8.36711692810059,4.30127763748169,-2.68921351432800,63.93197250366211,-32.02470016479492,27.33546829223633
535,539672505,107.75290679931641,65.76432800292969,-42.71823120117188,-8.34226131439209,4.85797882080078,-2.57947921752930,63.44211578369141,-24.56709671020508,25.17585945129395
536,539680838,107.68129730224609,65.62915802001953,-43.35598373413086,-8.78645324707031,4.86424970626831,-2.57376027107239,60.16904449462891,-24.11373901367188,23.54872512817383
537,539689171,107.62922668457031,65.51512145996094,-44.00573730468750,-8.26799488067627,4.34296941757202,-3.38859915733337,62.87403488159180,-27.08608818054199,20.38159561157227
538,539697504,107.63394165039062,65.39894104003906,-44.61606597900391,-8.32259941101074,5.27673339843750,-2.54097056388855,66.21108245849609,-23.81578063964844,21.01632308959961
539,539705837,107.61034393310547,65.27561950683594,-45.20360565185547,-8.47329711914062,4.49183511734009,-3.26433372497559,59.32543945312500,-24.12262344360352,20.56966972351074
540,539714170,107.52448272705078,65.15946960449219,-45.92713546752930,-8.05513858795166,4.72138261795044,-2.84436273574829,67.54376220703125,-29.53637504577637,22.78539085388184
541,539722503,107.43848419189453,65.00035858154297,-46.61490631103516,-8.24914264678955,4.97894191741943,-2.86155056953430,62.57359695434570,-28.04903984069824,26.23517227172852
542,539730836,107.21315765380859,64.84453582763672,-47.44282150268555,-8.27436161041260,4.88053846359253,-2.52652120590210,61.96391296386719,-33.67690658569336,28.90455436706543
543,539739169,106.91898345947266,64.68459320068359,-48.34095001220703,-8.11097431182861,4.43569612503052,-2.45751810073853,60.17514801025391,-38.94146347045898,29.40734481811523
544,539747502,106.61412811279297,64.54637145996094,-49.28612136840820,-7.72176361083984,4.09226036071777,-2.61296939849854,64.90816497802734,-40.81912231445312,28.42020988464355
545,539755835,106.50167846679688,64.39079284667969,-50.06225967407227,-7.81836175918579,4.44835805892944,-2.36436200141907,68.48548126220703,-33.84608840942383,26.93495559692383
546,539764168,106.31360626220703,64.24221038818359,-50.86736297607422,-8.45919513702393,4.39952659606934,-1.91396689414978,63.51894378662109,-34.17816162109375,27.44446372985840
547,539772501,106.15003204345703,64.09814453125000,-51.68260955810547,-8.02994918823242,3.87211346626282,-2.93744730949402,66.35817718505859,-36.82747268676758,26.14265060424805
548,539780834,106.06094360351562,63.93624114990234,-52.47964859008789,-8.60344982147217,5.21045207977295,-1.87117123603821,74.30366516113281,-33.91445541381836,28.79656028747559
549,539789167,105.86886596679688,63.75117111206055,-53.28863525390625,-9.50082397460938,4.32060909271240,-2.77375292778015,61.92702484130859,-35.78462600708008,30.77346611022949
550,539797500,105.54069519042969,63.59260177612305,-54.38058853149414,-8.98469257354736,4.57740068435669,-2.90839481353760,77.08201599121094,-49.84157943725586,32.56136703491211
551,539805833,105.26779937744141,63.39360427856445,-55.37574386596680,-8.74636268615723,5.65999889373779,-2.74276089668274,71.98499298095703,-45.87596130371094,34.88848495483398
552,539814166,104.80075836181641,63.21517562866211,-56.48433685302734,-9.25111675262451,5.21728467941284,-2.48606562614441,61.82390213012695,-51.21284484863281,34.69028091430664
553,539822499,104.34925079345703,63.09436416625977,-57.64435195922852,-7.99119806289673,4.36620950698853,-3.42546844482422,67.78005981445312,-58.03493118286133,27.57313919067383
554,539830832,104.07331848144531,62.96338272094727,-58.61937713623047,-7.35684251785278,5.02236557006836,-3.08463239669800,70.18125915527344,-46.63120269775391,26.77005767822266
555,539839165,103.95092773437500,62.82047271728516,-59.38102340698242,-7.77324247360229,4.37824630737305,-3.18858027458191,64.38312530517578,-37.17132949829102,24.47299385070801
556,539847498,103.81593322753906,62.70171737670898,-60.17982864379883,-7.89452362060547,4.28793525695801,-3.27732515335083,68.04925537109375,-38.22014236450195,22.87342643737793
557,539855831,103.76941680908203,62.56815338134766,-60.88905334472656,-7.94778442382812,4.58924770355225,-3.39658594131470,67.64617156982422,-35.14543914794922,22.67985534667969
558,539864164,103.75067901611328,62.42956924438477,-61.57672500610352,-8.01720237731934,5.38202238082886,-3.04199266433716,69.97119140625000,-32.10664367675781,23.72578048706055
559,539872497,103.74347686767578,62.26687240600586,-62.24892425537109,-8.40255641937256,5.61440181732178,-2.63612937927246,68.19374847412109,-32.77320098876953,25.67398262023926
560,539880830,103.64244842529297,62.13020324707031,-63.03374862670898,-8.23972702026367,4.89423704147339,-3.01695489883423,70.20195007324219,-37.84366226196289,24.83768463134766
561,539889163,103.65525054931641,61.97389984130859,-63.77479553222656,-7.69634294509888,5.50181913375854,-2.62855982780457,77.60977935791016,-37.15449142456055,25.89642906188965
562,539897496,103.65166473388672,61.81126022338867,-64.47039031982422,-8.01767253875732,5.15918397903442,-2.66539049148560,72.21532440185547,-32.65577697753906,26.75146675109863
563,539905829,103.65865325927734,61.65055084228516,-65.20061492919922,-8.15084171295166,5.01742315292358,-2.47852659225464,75.45610046386719,-36.88826751708984,26.38596153259277
564,539914162,103.58705902099609,61.51534652709961,-65.96950531005859,-8.21319293975830,4.85699176788330,-2.33664488792419,71.57302856445312,-37.90099334716797,24.61379623413086
565,539922495,103.62834930419922,61.39257049560547,-66.65207672119141,-7.96734046936035,4.93187332153320,-2.53225994110107,74.29441070556641,-35.72720718383789,21.41632843017578
566,539930828,103.62453460693359,61.27024078369141,-67.32254791259766,-8.30139446258545,5.20138883590698,-2.50257611274719,69.15761566162109,-33.10359954833984,21.86269187927246
567,539939161,103.55408477783203,61.15718078613281,-68.07418060302734,-8.77942276000977,4.90926456451416,-2.15534996986389,67.92178344726562,-40.21633529663086,21.31295776367188
568,539947494,103.43212890625000,61.11861038208008,-68.87992095947266,-8.02859687805176,3.32524991035461,-3.62881016731262,69.06216430664062,-43.35411071777344,13.88996696472168
569,539955827,103.48298645019531,61.03192901611328,-69.60625457763672,-7.42536115646362,5.02452468872070,-3.18524026870728,81.40441894531250,-37.62512207031250,18.43091011047363
570,539964160,103.56043243408203,60.89554977416992,-70.23027038574219,-8.48430061340332,5.21869325637817,-2.60936951637268,72.06991577148438,-32.77188110351562,22.44544982910156
571,539972493,103.50753784179688,60.77872085571289,-71.03384399414062,-9.01378631591797,4.06970071792603,-2.55970239639282,75.07276153564453,-43.69362640380859,22.66217613220215
572,539980826,103.37551116943359,60.70056915283203,-71.96387481689453,-8.31331729888916,4.10502338409424,-2.87722063064575,80.53435516357422,-49.92523574829102,20.29778480529785
573,539989159,103.33769226074219,60.61769866943359,-72.81575775146484,-7.64188241958618,5.00766706466675,-2.63301014900208,83.58943939208984,-45.48835372924805,19.74996948242188
574,539997492,103.38738250732422,60.52857589721680,-73.55129241943359,-7.96890640258789,4.83570671081543,-2.73113322257996,80.02024078369141,-41.07090759277344,18.59602546691895
575,540005825,103.39565277099609,60.46154022216797,-74.36530303955078,-8.02757072448730,4.33781337738037,-2.78769016265869,83.14388275146484,-46.32912063598633,17.15996170043945
576,540014158,103.31114959716797,60.41035461425781,-75.25757598876953,-7.67295980453491,4.71423482894897,-2.52272796630859,82.00878906250000,-49.03364181518555,16.67251968383789
577,540022491,103.23175811767578,60.37761688232422,-76.13402557373047,-7.36276388168335,4.39702987670898,-2.95210194587708,80.93223571777344,-48.72037124633789,14.25448799133301
578,540030824,103.25921630859375,60.34439468383789,-76.96794128417969,-7.11565685272217,4.28629684448242,-3.10658907890320,87.33735656738281,-48.69182968139648,13.51903247833252
579,540039157,103.31519317626953,60.30038070678711,-77.78939056396484,-7.06180763244629,4.30474376678467,-3.29397773742676,89.37639617919922,-47.77776336669922,14.69002819061279
580,540047490,103.33234405517578,60.26017761230469,-78.66873168945312,-7.36668777465820,4.21370124816895,-3.12830162048340,92.71578979492188,-48.84681701660156,15.24466609954834
581,540055823,103.36247253417969,60.22192382812500,-79.57756805419922,-7.49589443206787,3.78486824035645,-3.11673665046692,97.30815887451172,-50.66231918334961,15.46250820159912
582,540064156,103.49666595458984,60.17874908447266,-80.44208526611328,-7.39375209808350,3.91888189315796,-3.61480307579041,103.05202484130859,-50.48411560058594,15.47158908843994
583,540072489,103.71209716796875,60.12032318115234,-81.26589965820312,-7.27290248870850,4.79479598999023,-3.63449954986572,108.45229339599609,-47.77933120727539,16.91103744506836
584,540080822,103.83663177490234,60.03721237182617,-82.12404632568359,-7.86023569107056,5.29734182357788,-3.28122472763062,103.21208190917969,-46.57015228271484,20.40722656250000
585,540089155,103.86708068847656,59.96580505371094,-83.07276916503906,-8.74173736572266,4.74737358093262,-3.31533527374268,101.26256561279297,-52.26658630371094,20.44339942932129
586,540097488,103.91648101806641,59.93458938598633,-84.06714630126953,-8.57290267944336,4.48032093048096,-3.65960288047791,105.98065948486328,-58.74636840820312,16.63192558288574
587,540105821,103.96695709228516,59.92797851562500,-85.03810882568359,-7.98915290832520,4.61190605163574,-3.59610247612000,103.59744262695312,-58.16964721679688,13.55319976806641
588,540114154,104.02621459960938,59.93744277954102,-85.96216583251953,-7.69935131072998,4.42817592620850,-4.23156356811523,102.08791351318359,-53.23831558227539,10.81935119628906
589,540122487,104.07744598388672,59.94710922241211,-86.89064025878906,-7.85388994216919,4.41890811920166,-4.21003866195679,101.59574127197266,-53.47016906738281,10.91655540466309
590,540130820,104.16986846923828,59.95367431640625,-87.81294250488281,-7.77873373031616,4.45529603958130,-4.35456657409668,103.50060272216797,-55.69292068481445,11.63624191284180
591,540139153,104.31044769287109,59.95702743530273,-88.74080657958984,-7.61039113998413,4.69546031951904,-4.69286060333252,109.75363159179688,-55.95998001098633,12.25117206573486
592,540147486,104.43920898437500,59.95351791381836,-89.67883300781250,-7.43492221832275,5.05887603759766,-4.48489427566528,111.90140533447266,-53.54749298095703,12.88275432586670
593,540155819,104.63441467285156,59.93466567993164,-90.55980682373047,-7.60638093948364,5.39685297012329,-4.62736892700195,113.94052886962891,-49.74172592163086,13.96906757354736
594,540164152,104.92569732666016,59.89067077636719,-91.38375091552734,-8.04318428039551,5.89805793762207,-4.66811561584473,116.86677551269531,-48.45464324951172,16.82771873474121
595,540172485,105.14471435546875,59.82736968994141,-92.27074432373047,-8.86045360565186,5.92124462127686,-4.53239631652832,114.53323364257812,-51.57191085815430,20.28802108764648
596,540180818,105.21678924560547,59.76253890991211,-93.31694793701172,-9.40664672851562,5.70158147811890,-4.02547836303711,116.15896606445312,-57.98005676269531,22.52862739562988
597,540189151,105.20148468017578,59.72308731079102,-94.45333099365234,-9.75052452087402,5.43236112594604,-3.96189713478088,114.96224975585938,-64.12265014648438,21.07877349853516
598,540197484,105.18555450439453,59.71175384521484,-95.63459777832031,-9.97776508331299,5.43135786056519,-3.79740667343140,116.58751678466797,-70.56649017333984,19.30940818786621
599,540205817,105.08851623535156,59.74457550048828,-96.89148712158203,-10.03798961639404,4.44706058502197,-4.66400289535522,114.62728118896484,-76.40458679199219,15.39246654510498
600,540214150,104.95195770263672,59.79043197631836,-98.26313018798828,-9.47207260131836,4.93071269989014,-4.51136779785156,124.82979583740234,-80.53580474853516,14.63882160186768
601,540222483,104.71526336669922,59.86156082153320,-99.66607666015625,-9.82374572753906,4.60322093963623,-4.38844251632690,116.14578247070312,-83.04216003417969,11.89208221435547
602,540230816,104.55677032470703,59.96614456176758,-101.08745574951172,-9.43904781341553,3.24301624298096,-5.34202146530151,124.46679687500000,-87.89532470703125,9.07451534271240
603,540239149,104.48538970947266,60.07620620727539,-102.49295043945312,-8.47208499908447,4.05118513107300,-5.24932003021240,133.35768127441406,-86.97740936279297,8.11244010925293
604,540247482,104.35282135009766,60.17462921142578,-103.90376281738281,-8.69894218444824,4.30181789398193,-5.46186971664429,129.89987182617188,-83.67874908447266,8.03184604644775
605,540255815,104.21806335449219,60.26834869384766,-105.37189483642578,-9.07833194732666,3.36108350753784,-5.90713167190552,135.74461364746094,-86.62760162353516,9.16675090789795
606,540264148,104.10034179687500,60.36917495727539,-106.89971923828125,-9.14352035522461,3.63596320152283,-5.56149578094482,140.86308288574219,-93.09038543701172,10.53732013702393
607,540272481,104.03419494628906,60.48387908935547,-108.43642425537109,-8.85811996459961,3.34131598472595,-6.02857065200806,147.98811340332031,-93.80718231201172,8.98420619964600
608,540280814,103.90750885009766,60.60355377197266,-110.04949188232422,-9.53372478485107,3.56396484375000,-5.85109329223633,152.34521484375000,-94.91033172607422,7.51079273223877
609,540289147,103.74333953857422,60.74550247192383,-111.73072052001953,-10.34466361999512,3.31443881988525,-6.06440162658691,155.20196533203125,-99.08330535888672,5.54605770111084
610,540297480,103.61452484130859,60.93176269531250,-113.46340942382812,-10.92813491821289,3.25434207916260,-5.99067831039429,161.55172729492188,-105.91182708740234,2.85346794128418
611,540305813,103.43526458740234,61.14783096313477,-115.30536651611328,-11.06333160400391,3.69912576675415,-5.99420881271362,167.19657897949219,-112.38704681396484,0.65413403511047
612,540314146,103.07875823974609,61.37688064575195,-117.33998870849609,-11.40887355804443,3.82668018341064,-5.98232603073120,170.29933166503906,-119.63538360595703,-1.37296259403229
613,540322479,102.62178039550781,61.63370895385742,-119.52336883544922,-11.47946548461914,3.47210788726807,-7.02152633666992,174.43798828125000,-127.78853607177734,-3.77519416809082
614,540330812,102.22176361083984,61.92079544067383,-121.73779296875000,-11.28133106231689,4.08705711364746,-7.13240385055542,181.37904357910156,-132.33499145507812,-5.28569364547729
615,540339145,101.73780822753906,62.22865295410156,-124.04562377929688,-11.22534561157227,4.02213191986084,-7.85188102722168,181.67034912109375,-136.82040405273438,-7.65645694732666
616,540347478,101.07069396972656,62.52362823486328,-126.57785797119141,-10.93502998352051,4.03259325027466,-8.31644439697266,188.17138671875000,-144.18185424804688,-8.38512039184570
617,540355811,100.29885864257812,62.80286788940430,-129.26622009277344,-10.67856693267822,3.90652179718018,-8.61020278930664,192.95716857910156,-150.85527038574219,-6.99862766265869
618,540364144,99.53697967529297,63.09226226806641,-132.03433227539062,-10.65797996520996,3.80647397041321,-9.09323596954346,199.35707092285156,-157.00584411621094,-6.07276201248169
619,540372477,98.66166687011719,63.35704040527344,-134.99128723144531,-10.67555809020996,3.37195444107056,-9.51295661926270,206.33743286132812,-165.14253234863281,-3.76006793975830
620,540380810,97.58756256103516,63.55683135986328,-138.20208740234375,-10.39247798919678,2.88840627670288,-9.54297256469727,214.79364013671875,-172.90884399414062,-0.94881486892700
621,540389143,96.54275512695312,63.76328659057617,-141.49176025390625,-10.00523662567139,2.62935686111450,-9.31832313537598,222.72668457031250,-179.12606811523438,-0.24056060612202
622,540397476,95.32189178466797,63.91050338745117,-144.99607849121094,-9.72169494628906,2.53195309638977,-8.96566677093506,229.93099975585938,-185.32101440429688,0.04024305567145
623,540405809,94.10335540771484,64.07180023193359,-148.58616638183594,-9.47589302062988,2.47269654273987,-8.75278854370117,235.06863403320312,-192.04656982421875,-0.44651788473129
624,540414142,92.72022247314453,64.17181396484375,-152.37306213378906,-9.21500778198242,3.12462520599365,-7.67055130004883,241.87869262695312,-197.76913452148438,-1.73940742015839
625,540422475,91.31552124023438,64.27612304687500,-156.26245117187500,-9.29887676239014,4.04708433151245,-6.31100368499756,245.68286132812500,-205.29162597656250,-1.49566066265106
626,540430808,89.56986999511719,64.22675323486328,-160.59611511230469,-9.69581508636475,5.04412364959717,-6.07214689254761,257.92895507812500,-224.92437744140625,6.09659910202026
627,540439141,87.50567626953125,64.07860565185547,-165.34632873535156,-9.39396381378174,5.91597652435303,-6.27943372726440,259.27395629882812,-250.60267639160156,15.79081058502197
628,540447474,84.93379974365234,63.73009109497070,-170.43936157226562,-7.83938837051392,6.89822959899902,-6.65952205657959,239.25915527343750,-270.04046630859375,22.40164947509766
629,540455807,82.28977966308594,63.33943176269531,-175.48863220214844,-5.82254171371460,7.20945262908936,-7.33122825622559,219.16514587402344,-274.96026611328125,21.33738899230957
630,540464140,79.76196289062500,62.84058380126953,179.63562011718750,-3.16692638397217,7.58027696609497,-8.14557743072510,217.41520690917969,-269.93887329101562,16.20475959777832
631,540472473,77.63967132568359,62.36320877075195,175.10546875000000,-2.00737118721008,6.97375249862671,-6.60655593872070,221.95820617675781,-257.68472290039062,12.25421619415283
632,540480806,75.57200622558594,61.78440856933594,170.75398254394531,-2.26955056190491,7.88766384124756,-4.67580509185791,212.25228881835938,-253.04145812988281,9.29646682739258
633,540489139,73.36598205566406,61.22257995605469,166.37332153320312,-4.03297805786133,6.64184093475342,-0.95965301990509,191.35792541503906,-260.54412841796875,3.11414551734924
634,540497472,71.11466979980469,60.61362838745117,161.97863769531250,-3.76328969001770,2.62809062004089,0.89380288124084,189.72279357910156,-265.44830322265625,-10.21645355224609
635,540505805,69.19362640380859,60.18435668945312,157.78706359863281,-1.76405596733093,-0.54211109876633,1.61761569976807,201.46794128417969,-251.70004272460938,-30.28499412536621
636,540514138,67.76437377929688,59.83703231811523,154.02748107910156,0.66973519325256,-0.35716974735260,-0.47828623652458,218.21923828125000,-224.13833618164062,-45.55890274047852
637,540522471,66.57761383056641,59.62009429931641,150.60873413085938,0.99931406974792,1.90187263488770,-2.31191253662109,207.10119628906250,-200.82415771484375,-50.28570175170898
638,540530804,65.38574218750000,59.20026397705078,147.25503540039062,-0.92300200462341,2.98099732398987,-1.11232447624207,202.38653564453125,-206.64916992187500,-38.95474243164062
639,540539137,64.44487762451172,58.69563293457031,143.99504089355469,-2.07578730583191,4.21608591079712,0.84076118469238,217.75418090820312,-208.14425659179688,-24.61303520202637
640,540547470,63.72798156738281,58.07398605346680,141.00048828125000,-3.47432088851929,5.23840999603271,1.50732195377350,218.95578002929688,-201.11592102050781,-16.84272766113281
641,540555803,63.17545318603516,57.48442459106445,138.18612670898438,-4.84347867965698,5.74137783050537,0.80436730384827,215.53002929687500,-192.01138305664062,-11.12149429321289
642,540564136,62.82594680786133,56.86108779907227,135.69554138183594,-5.53737401962280,6.56483030319214,0.06402984261513,208.15808105468750,-177.40684509277344,-8.52654266357422
643,540572469,62.54809951782227,56.30732727050781,133.35707092285156,-6.97052669525146,6.73006200790405,-0.20945873856544,197.31108093261719,-166.67823791503906,-5.81595230102539
644,540580802,62.38220977783203,55.66880798339844,131.23417663574219,-8.33234977722168,8.26974201202393,0.58123230934143,190.21261596679688,-160.86871337890625,0.44667261838913
645,540589135,62.18672943115234,55.07947921752930,129.11477661132812,-8.99722194671631,10.33672046661377,1.88454389572144,182.56176757812500,-159.39202880859375,1.35835468769073
646,540597468,61.90147399902344,54.45603561401367,127.04273223876953,-9.12262058258057,11.17705726623535,2.71518993377686,167.81495666503906,-160.86796569824219,-2.78729438781738
647,540605801,61.50584030151367,53.91359329223633,124.93244171142578,-8.45276260375977,10.67091655731201,2.45625233650208,154.96139526367188,-159.60675048828125,-7.19858074188232
648,540614134,61.08033370971680,53.33964538574219,122.93680572509766,-7.00328111648560,9.91314029693604,2.43289518356323,140.70452880859375,-156.73854064941406,-9.43847274780273
649,540622467,60.59373092651367,52.83460617065430,120.97627258300781,-6.57367801666260,9.34791755676270,3.40316820144653,127.13118743896484,-150.95410156250000,-10.45860099792480
650,540630800,60.05826950073242,52.28968048095703,119.14177703857422,-6.59233903884888,8.52682304382324,3.82171320915222,109.48106384277344,-147.74020385742188,-11.07088088989258
651,540639133,59.50831222534180,51.80572891235352,117.34475708007812,-6.57073402404785,7.23207235336304,4.00224113464355,101.88674163818359,-141.69311523437500,-11.36744213104248
652,540647466,59.07365798950195,51.26765060424805,115.69404602050781,-7.40469455718994,6.79711532592773,4.63575696945190,101.88141632080078,-138.00225830078125,-9.04065227508545
653,540655799,58.67180252075195,50.79920196533203,114.07114410400391,-7.26572513580322,6.79421949386597,5.05326890945435,101.36054992675781,-131.53077697753906,-10.15654563903809
654,540664132,58.42147827148438,50.31874465942383,112.61602020263672,-7.37597942352295,6.40420866012573,4.38737869262695,103.74499511718750,-123.81291961669922,-10.33673477172852
655,540672465,58.21893310546875,49.91427993774414,111.19056701660156,-7.16297340393066,7.88756942749023,4.20863962173462,105.51379394531250,-116.30246734619141,-11.45688152313232
656,540680798,58.09830093383789,49.48419570922852,109.89627838134766,-6.82289648056030,9.28306865692139,4.77619743347168,102.90570068359375,-111.66761016845703,-10.79495334625244
657,540689131,57.94628143310547,49.11703491210938,108.62953948974609,-6.70445537567139,9.87504863739014,4.95285940170288,95.85191345214844,-104.72260284423828,-10.56191062927246
658,540697464,57.81789398193359,48.75772857666016,107.51849365234375,-6.52924728393555,9.74188613891602,4.67984199523926,84.04837799072266,-96.19819641113281,-11.68807315826416
659,540705797,57.61983108520508,48.46690750122070,106.43498992919922,-6.61980533599854,9.68417549133301,4.29263973236084,72.91282653808594,-88.51696014404297,-12.21244621276855
660,540714130,57.45524597167969,48.15318298339844,105.46199798583984,-6.43437194824219,9.56257534027100,4.84623003005981,66.36425781250000,-84.82788848876953,-11.56171798706055
661,540722463,57.23973846435547,47.88706207275391,104.49991607666016,-6.53683233261108,9.04279994964600,5.13582181930542,59.33399200439453,-79.39151000976562,-10.93801403045654
662,540730796,57.07464599609375,47.61880874633789,103.66693115234375,-6.67328166961670,8.69570541381836,4.76076030731201,53.10623550415039,-73.02346801757812,-11.05205917358398
663,540739129,56.87441253662109,47.37789535522461,102.81986999511719,-6.88252210617065,8.58510398864746,4.96801137924194,50.47996520996094,-70.41254425048828,-9.64210796356201
664,540747462,56.72234344482422,47.09386825561523,102.04035949707031,-6.82026624679565,9.12342739105225,5.90595054626465,49.34601211547852,-70.91240692138672,-7.90855073928833
665,540755795,56.51819992065430,46.85328292846680,101.26033020019531,-6.77233886718750,8.49592018127441,5.65982246398926,43.71643066406250,-66.25007629394531,-7.78134107589722
666,540764128,56.36841964721680,46.61278533935547,100.57418060302734,-6.69397926330566,7.77003479003906,5.18132543563843,40.89944076538086,-62.08795547485352,-8.79981422424316
667,540772461,56.25032806396484,46.39617919921875,99.92153167724609,-6.62252855300903,7.46467494964600,5.30386590957642,41.56832122802734,-58.37014770507812,-9.91823673248291
668,540780794,56.09437561035156,46.22500610351562,99.23362731933594,-6.86909151077271,7.40308666229248,6.03833055496216,40.97922515869141,-55.76122665405273,-11.70639610290527
669,540789127,55.94620132446289,46.07504272460938,98.57067871093750,-6.94015264511108,7.05874633789062,6.34004783630371,39.74483489990234,-52.69010162353516,-13.09676456451416
670,540797460,55.84759902954102,45.92507934570312,97.97389984130859,-7.37880516052246,6.87948083877563,6.38251161575317,38.59435653686523,-50.38961410522461,-14.65129566192627
671,540805793,55.74425125122070,45.80751800537109,97.37689971923828,-7.45048332214355,6.05317163467407,5.21395921707153,37.93475723266602,-48.29197311401367,-18.02528953552246
672,540814126,55.62107086181641,45.72476196289062,96.73252868652344,-7.01932048797607,6.04646444320679,4.88603448867798,40.96373367309570,-46.96948623657227,-19.62060546875000
