sep=,
DeviceTag:,Xsens DOT
FirmwareVersion:,2.1.0
AppVersion:,2022.0.0
StartTime: ,2022-08-15_19:17:27_000 EDT
© Xsens Technologies B. V. 2005-2022

PacketCounter,SampleTimeFine,Euler_X,Euler_Y,Euler_Z,Acc_X,Acc_Y,Acc_Z,Gyr_X,Gyr_Y,Gyr_Z
0,563204205,112.04820251464844,72.29061889648438,-157.33952331542969,0.00000000000000,0.00000000000000,0.00000000000000,0.00000000000000,0.00000000000000,0.00000000000000
1,563212538,111.37660980224609,72.18113708496094,-157.84245300292969,-7.94105529785156,2.67385959625244,-0.14660234749317,-24.37861633300781,-11.39769268035889,17.27694511413574
2,563220871,110.15465545654297,72.14057159423828,-159.26162719726562,-7.76729059219360,2.67108440399170,-0.32329335808754,-27.29383850097656,-10.34301280975342,16.31737327575684
3,563229204,109.50698089599609,72.03707885742188,-159.72331237792969,-7.90288400650024,2.68981814384460,-0.39511165022850,-26.26985168457031,-10.96072483062744,15.72286319732666
4,563237537,108.46043395996094,71.97769165039062,-160.79740905761719,-8.10285282135010,2.88777756690979,-0.07705169916153,-31.07199859619141,-10.46921634674072,15.24826240539551
5,563245870,107.79749298095703,71.89046478271484,-161.20843505859375,-8.23876857757568,2.67851948738098,0.11442471295595,-33.94018554687500,-10.41804027557373,12.95911502838135
6,563254203,106.78341674804688,71.84486389160156,-162.19107055664062,-8.43715286254883,2.65773320198059,-0.04096883535385,-37.69224548339844,-8.93607616424561,11.84036350250244
7,563262536,105.93948364257812,71.74817657470703,-162.73976135253906,-9.19082355499268,3.04077625274658,0.41451412439346,-40.00589752197266,-15.60165977478027,15.18267440795898
8,563270869,104.66999816894531,71.72052764892578,-163.99874877929688,-9.19425010681152,1.74773633480072,-0.40298867225647,-40.57607269287109,-15.79215431213379,13.52507114410400
9,563279202,103.94337463378906,71.62332916259766,-164.46434020996094,-8.54720783233643,2.34058380126953,-1.07877051830292,-35.44525909423828,-13.27106094360352,13.89560031890869
10,563287535,102.87658691406250,71.56604003906250,-165.44383239746094,-9.05739498138428,2.64001464843750,-0.23721593618393,-41.43452072143555,-10.19557285308838,17.19878768920898
11,563295868,102.09309387207031,71.46143341064453,-165.92530822753906,-8.83909130096436,2.05291414260864,-0.23722924292088,-40.45134735107422,-13.10936164855957,17.01245498657227
12,563304201,101.46585845947266,71.31989288330078,-166.23927307128906,-8.72054576873779,1.92836356163025,-0.41922661662102,-40.86870193481445,-7.42318630218506,17.33507919311523
13,563312534,100.92311096191406,71.23246765136719,-166.45658874511719,-9.08137321472168,1.83961915969849,-0.39352425932884,-41.60189056396484,-2.96231675148010,15.91692924499512
14,563320867,100.46315002441406,71.10455322265625,-166.55682373046875,-9.14639663696289,1.85272204875946,-0.54924517869949,-45.11843490600586,-0.08765207976103,14.05626010894775
15,563329200,100.00376892089844,70.97216796875000,-166.62657165527344,-9.31637191772461,2.06258797645569,-0.27682450413704,-48.51649475097656,1.02578830718994,14.36796569824219
16,563337533,99.57320404052734,70.91725158691406,-166.66091918945312,-9.22413635253906,1.51980972290039,-0.34296199679375,-49.33533477783203,2.06700944900513,13.03233623504639
17,563345866,99.11624908447266,70.87265777587891,-166.70399475097656,-9.19438743591309,1.54579317569733,-0.09519550949335,-51.39819335937500,2.18757653236389,13.26683712005615
18,563354199,98.68630218505859,70.75470733642578,-166.71595764160156,-9.23352241516113,0.87571954727173,-0.21242830157280,-51.54639053344727,2.60337305068970,12.30942440032959
19,563362532,98.16997528076172,70.62464904785156,-166.81527709960938,-9.54383277893066,1.14767777919769,-0.09369586408138,-52.01214981079102,-0.73169821500778,14.27332782745361
20,563370865,97.67246246337891,70.60217285156250,-166.91851806640625,-9.79018020629883,0.26025295257568,-0.49205848574638,-49.43016052246094,0.13917528092861,14.63131046295166
21,563379198,97.19060516357422,70.60080718994141,-167.03073120117188,-10.00887298583984,0.87628149986267,-0.43948268890381,-46.94002532958984,-1.05925333499908,16.79522323608398
22,563387531,96.76860809326172,70.43190765380859,-167.07009887695312,-10.57056522369385,0.41487556695938,-0.54170686006546,-47.49761199951172,1.77961695194244,18.56269073486328
23,563395864,96.24781799316406,70.24184417724609,-167.23828125000000,-11.26920127868652,0.75687253475189,-0.11027008295059,-44.79510879516602,-3.28352117538452,21.68741226196289
24,563404197,95.85283660888672,70.21966552734375,-167.29960632324219,-11.54353237152100,-0.27075004577637,-0.53251665830612,-42.79355621337891,-0.33598262071609,22.00816726684570
25,563412530,95.54608154296875,70.24367523193359,-167.33818054199219,-11.76970672607422,-0.04456290602684,-0.29408693313599,-34.82621765136719,0.77927589416504,21.68523597717285
26,563420863,95.28749847412109,70.04104614257812,-167.32487487792969,-12.55338954925537,-0.47052136063576,-0.60209298133850,-33.84656524658203,3.71467065811157,22.41306114196777
27,563429196,95.00762939453125,69.84250640869141,-167.42526245117188,-12.84809398651123,-0.19050353765488,-0.11097261309624,-23.58040618896484,-1.09690475463867,22.35452079772949
28,563437529,94.85540008544922,69.91146087646484,-167.41090393066406,-13.14929962158203,-0.15096040070057,-0.34057033061981,-22.62553215026855,2.06075644493103,22.01392936706543
29,563445862,94.69284057617188,70.01858520507812,-167.47279357910156,-13.31308746337891,0.24224144220352,0.49506327509880,-15.08922481536865,-0.22819736599922,21.39549255371094
30,563454195,94.59106445312500,69.83637237548828,-167.49758911132812,-13.85873317718506,0.48628279566765,0.48181408643723,-10.74169158935547,1.63048768043518,20.13882827758789
31,563462528,94.37719726562500,69.64966583251953,-167.67578125000000,-14.28768348693848,1.07220435142517,0.58362323045731,-6.91243886947632,-4.74998235702515,21.17347717285156
32,563470861,94.08238220214844,69.77262115478516,-167.95974731445312,-14.25755596160889,0.66057586669922,0.14738452434540,-4.72377920150757,-5.54489517211914,20.75859069824219
33,563479194,93.85170745849609,69.89990997314453,-168.26898193359375,-14.33958816528320,1.46257472038269,-0.19719921052456,6.26979064941406,-5.36131763458252,19.72000885009766
34,563487527,93.74893188476562,69.72012329101562,-168.42593383789062,-15.02603149414062,2.01235389709473,-0.17863664031029,4.01565980911255,-4.17537784576416,20.22184371948242
35,563495860,93.65236663818359,69.55935668945312,-168.64666748046875,-14.99280166625977,2.18927288055420,-0.60027700662613,11.92773437500000,-7.07264375686646,18.10906600952148
36,563504193,93.59350585937500,69.69327545166016,-168.85198974609375,-14.63319492340088,1.96175765991211,-1.62180972099304,14.74421310424805,-3.30610752105713,15.52752208709717
37,563512526,93.62284851074219,69.81124114990234,-169.03105163574219,-14.35281372070312,2.51434087753296,-1.96358466148376,20.88945579528809,-7.42959213256836,14.87351608276367
38,563520859,93.63503265380859,69.72501373291016,-169.26329040527344,-13.71444892883301,1.37462568283081,-2.76900815963745,26.28997039794922,-8.08483219146729,9.20964336395264
39,563529192,93.65105438232422,69.65377807617188,-169.57133483886719,-12.87966156005859,1.98738479614258,-2.76147937774658,35.27099990844727,-11.38273620605469,7.61419916152954
40,563537525,93.81274414062500,69.84025573730469,-169.79164123535156,-12.66865825653076,1.41369402408600,-2.82447218894958,39.08985900878906,-17.76865005493164,5.07064056396484
41,563545858,94.01000213623047,70.03707885742188,-170.08999633789062,-11.63138866424561,1.39926767349243,-3.14666581153870,50.41982650756836,-27.35864067077637,2.42983698844910
42,563554191,93.75096893310547,70.03025817871094,-170.91668701171875,-10.62255954742432,1.95240461826324,-3.36280655860901,60.83835220336914,-32.87131881713867,1.38277745246887
43,563562524,93.41823577880859,69.99519348144531,-171.90264892578125,-10.15208435058594,2.80864810943604,-3.14295005798340,69.94347381591797,-39.22277832031250,5.00123357772827
44,563570857,93.50485992431641,70.12157440185547,-172.58020019531250,-9.97263526916504,3.01197481155396,-3.57800412178040,78.71596527099609,-47.30921173095703,9.15595340728760
45,563579190,93.59703063964844,70.14176177978516,-173.37139892578125,-9.44226455688477,2.77815747261047,-4.66982412338257,91.37506103515625,-55.33414459228516,14.77250957489014
46,563587523,93.08931732177734,69.96879577636719,-174.86708068847656,-9.14705181121826,3.18111443519592,-5.56587076187134,106.47483062744141,-59.04693984985352,22.56340980529785
47,563595856,92.61422729492188,69.73587036132812,-176.44615173339844,-8.93610858917236,3.37647533416748,-6.08060884475708,119.56477355957031,-62.92498397827148,29.43776702880859
48,563604189,93.00874328613281,69.53447723388672,-177.30815124511719,-8.46177768707275,3.69422745704651,-6.10197734832764,132.64207458496094,-67.07128906250000,36.93442916870117
49,563612522,93.64834594726562,69.24701690673828,-178.04258728027344,-7.94362878799438,4.31918811798096,-6.18538331985474,144.58718872070312,-71.27800750732422,41.95387649536133
50,563620855,93.24631500244141,68.88883209228516,-179.88894653320312,-7.45995664596558,5.15652513504028,-6.52860879898071,157.38516235351562,-75.57970428466797,45.92956924438477
51,563629188,92.88791656494141,68.48916625976562,178.20152282714844,-7.18909263610840,6.15089368820190,-6.48883914947510,169.15356445312500,-79.73071289062500,50.61388015747070
52,563637521,93.71268463134766,68.05563354492188,177.34849548339844,-7.07745885848999,6.76506042480469,-6.49915266036987,176.43775939941406,-84.34981536865234,54.45042419433594
53,563645854,94.59836578369141,67.50917053222656,176.48138427734375,-7.34269285202026,7.28034925460815,-6.61230850219727,183.04504394531250,-89.73398590087891,57.82792663574219
54,563654187,94.14780426025391,67.07947540283203,174.27647399902344,-8.11615943908691,7.50223493576050,-6.99011945724487,188.71124267578125,-97.07058715820312,57.45103836059570
55,563662520,93.60913085937500,66.67111968994141,171.90812683105469,-8.76338005065918,7.29041004180908,-7.42485141754150,195.41970825195312,-107.19246673583984,54.70309066772461
56,563670853,94.32532501220703,66.14320373535156,170.65058898925781,-9.35753154754639,6.83881521224976,-7.60381937026978,201.47665405273438,-116.26782226562500,52.27350997924805
57,563679186,95.07295227050781,65.64133453369141,169.36413574218750,-9.80540275573730,5.87370109558105,-8.20213794708252,205.47421264648438,-123.55393218994141,47.72184371948242
58,563687519,94.39090728759766,65.37516784667969,166.67256164550781,-9.93133544921875,5.64234638214111,-8.77859878540039,210.79252624511719,-129.99063110351562,41.11655426025391
59,563695852,93.68910217285156,65.17535400390625,163.93399047851562,-9.80274868011475,4.80882024765015,-9.58500003814697,212.98268127441406,-134.58029174804688,31.85301399230957
60,563704185,94.57589721679688,64.95321655273438,162.63978576660156,-9.60318470001221,4.72388887405396,-10.01107883453369,217.99717712402344,-135.80422973632812,22.90635871887207
61,563712518,95.67906188964844,64.86648559570312,161.54393005371094,-9.65948867797852,4.97175168991089,-10.68633079528809,218.66448974609375,-135.34771728515625,12.38716506958008
62,563720851,95.11141204833984,64.92906951904297,158.88706970214844,-9.65083503723145,4.88433456420898,-11.69966793060303,219.31478881835938,-134.56530761718750,3.47345423698425
63,563729184,96.53829193115234,65.01772308349609,158.10960388183594,-9.73644447326660,5.01740503311157,-12.68335723876953,218.97019958496094,-131.12103271484375,-3.13232707977295
64,563737517,96.03548431396484,65.15087890625000,155.48371887207031,-10.21913814544678,5.21312713623047,-13.08302497863770,224.16806030273438,-132.91661071777344,-3.12090969085693
65,563745850,97.66361999511719,65.27207183837891,154.78904724121094,-10.67663383483887,5.17468929290771,-13.70707702636719,229.93690490722656,-139.08282470703125,-1.03149962425232
66,563754183,97.00985717773438,65.40750122070312,151.84211730957031,-10.68384552001953,4.60398340225220,-14.35127925872803,241.66461181640625,-147.64428710937500,0.93822598457336
67,563762516,98.86393737792969,65.55650329589844,151.16165161132812,-10.45336341857910,4.86293792724609,-14.16802978515625,251.62864685058594,-149.88905334472656,3.63266777992249
68,563770849,98.17285919189453,65.69271850585938,147.99897766113281,-10.36632251739502,4.64525318145752,-14.16194057464600,261.50750732421875,-156.56893920898438,5.24081945419312
69,563779182,100.16208648681641,65.90324401855469,147.31584167480469,-10.29329776763916,4.75970697402954,-13.49520874023438,265.70718383789062,-158.83595275878906,4.12101268768311
70,563787515,99.33061218261719,66.09472656250000,143.93821716308594,-10.38598918914795,5.42199468612671,-12.79062843322754,269.24868774414062,-165.62916564941406,3.46017313003540
71,563795848,100.94681549072266,66.39022827148438,142.94735717773438,-11.16615104675293,5.71764898300171,-12.30671501159668,254.84460449218750,-177.19709777832031,2.03168869018555
72,563804181,99.00083923339844,66.68889617919922,138.62268066406250,-11.19833850860596,5.19946527481079,-11.62688350677490,241.32183837890625,-208.93637084960938,-1.31900823116302
73,563812514,99.11929321289062,67.16535949707031,136.31848144531250,-10.47408103942871,4.20336914062500,-11.07686233520508,222.74560546875000,-238.10227966308594,-7.90586900711060
74,563820847,95.93083953857422,67.57758331298828,130.65725708007812,-7.77451038360596,3.79399633407593,-11.47827148437500,243.25334167480469,-264.81771850585938,-16.59394836425781
75,563829180,95.22150421142578,68.15424346923828,127.06214904785156,-5.24856328964233,3.75468158721924,-10.13846397399902,271.83157348632812,-288.39147949218750,-17.35718917846680
76,563837513,90.82272338867188,68.25703430175781,119.59878540039062,-3.49821996688843,4.15657901763916,-8.41449069976807,302.61462402343750,-331.83367919921875,3.38278222084045
77,563845846,89.25115203857422,68.38059997558594,114.69728088378906,2.29581236839294,3.64682269096375,-9.47045898437500,319.36996459960938,-330.64581298828125,20.83365440368652
78,563854179,86.19087219238281,68.14028930664062,108.41210937500000,4.75316143035889,3.39526605606079,-8.09861183166504,332.17861938476562,-279.49673461914062,15.81742191314697
79,563862512,85.90991210937500,68.26165008544922,104.94585418701172,5.02107667922974,2.51356434822083,-6.62552595138550,315.64898681640625,-260.45553588867188,3.09878015518188
80,563870845,83.36766815185547,68.03166198730469,99.47879791259766,5.10975027084351,2.34029507637024,-7.27979564666748,302.65164184570312,-244.95986938476562,2.77553200721741
81,563879178,83.63430786132812,68.02511596679688,96.65628051757812,4.47184419631958,2.26036119461060,-6.13730049133301,311.39266967773438,-224.81460571289062,8.49098014831543
82,563887511,81.95542907714844,67.69317626953125,91.98132324218750,4.78417158126831,1.88797807693481,-2.83507418632507,316.97280883789062,-214.03489685058594,11.10076999664307
83,563895844,82.29399871826172,67.59492492675781,89.37537384033203,4.88225030899048,2.20950484275818,-3.42987918853760,303.93234252929688,-189.39871215820312,9.02526092529297
84,563904177,81.36695861816406,67.23281860351562,85.61826324462891,3.33603358268738,3.95012450218201,-4.62227535247803,303.83078002929688,-176.86674499511719,16.51789665222168
85,563912510,81.67290496826172,66.83377075195312,82.95201873779297,0.65014529228210,6.03153562545776,-3.50976419448853,314.74121093750000,-170.22834777832031,31.91856002807617
86,563920843,81.17378234863281,66.24313354492188,79.59479522705078,-2.38007307052612,6.68647527694702,-2.08009576797485,308.46667480468750,-168.46269226074219,44.27384185791016
87,563929176,81.21180725097656,65.61565399169922,76.84197235107422,-4.51257801055908,6.85778331756592,-2.65904474258423,294.97821044921875,-166.59240722656250,49.41744613647461
88,563937509,80.85543060302734,64.95718383789062,73.78486633300781,-5.44106769561768,6.55016946792603,-3.61313605308533,289.28295898437500,-163.10572814941406,52.26140594482422
89,563945842,80.98834228515625,64.26813507080078,71.19567871093750,-5.67970275878906,6.20371198654175,-4.15447330474854,287.95596313476562,-158.69451904296875,54.45971298217773
90,563954175,80.89543151855469,63.60710144042969,68.43946838378906,-5.95644521713257,6.19954299926758,-3.84369921684265,284.75576782226562,-155.28393554687500,53.57271575927734
91,563962508,81.13194274902344,62.93784332275391,66.02385711669922,-6.51821994781494,6.45005130767822,-2.82983469963074,279.54849243164062,-152.37303161621094,52.87647628784180
92,563970841,81.18605804443359,62.29610061645508,63.53453063964844,-6.88482379913330,6.79944849014282,-1.37575936317444,270.53448486328125,-146.88874816894531,53.10561370849609
93,563979174,81.58233642578125,61.65576171875000,61.45864486694336,-7.18047952651978,6.68853235244751,-0.93631082773209,260.88336181640625,-135.30451965332031,52.40440750122070
94,563987507,81.96015167236328,61.08002090454102,59.44814300537109,-7.49662494659424,6.22993183135986,-0.75750243663788,255.88052368164062,-123.60142517089844,49.95236587524414
95,563995840,82.58145141601562,60.51269149780273,57.72981262207031,-7.86079883575439,6.54125690460205,-0.78861302137375,249.12902832031250,-114.46547698974609,48.25006866455078
96,564004173,83.12441253662109,59.99365615844727,56.01320266723633,-8.05411624908447,6.43079996109009,-0.40064346790314,242.78848266601562,-108.45508575439453,47.21546936035156
97,564012506,83.81994628906250,59.47452163696289,54.53404617309570,-8.27347946166992,6.52053165435791,-0.17604634165764,232.18190002441406,-100.02593231201172,46.48288345336914
98,564020839,84.45676422119141,58.99035644531250,53.10823822021484,-8.71362972259521,5.93216514587402,0.09463959932327,222.21946716308594,-92.29372406005859,46.98839187622070
99,564029172,85.22854614257812,58.48464965820312,51.86339569091797,-9.41555118560791,5.69243001937866,0.06368724256754,216.52987670898438,-85.40983581542969,48.91491699218750
100,564037505,85.85227203369141,57.97067642211914,50.54115295410156,-10.53028964996338,5.70499324798584,0.32507216930389,208.52037048339844,-87.38213348388672,53.12168502807617
101,564045838,86.37259674072266,57.42323684692383,49.15274429321289,-11.29310226440430,5.21473407745361,0.52953338623047,200.25773620605469,-95.02132415771484,56.39504623413086
102,564054171,86.62528228759766,56.86214447021484,47.61325073242188,-11.86357116699219,5.35028982162476,0.28678300976753,184.29209899902344,-103.44651794433594,59.21345138549805
103,564062504,86.77610778808594,56.28470611572266,46.03401565551758,-11.56789684295654,5.57950210571289,0.04270850121975,174.00279235839844,-109.09442901611328,62.00164413452148
104,564070837,86.85332489013672,55.68833541870117,44.42369461059570,-10.65662956237793,5.95456409454346,0.25215953588486,168.22608947753906,-111.19701385498047,63.57753753662109
105,564079170,86.94239807128906,55.10359573364258,42.87157821655273,-10.21774482727051,6.48864936828613,0.57698547840118,162.12155151367188,-109.84140014648438,64.05120086669922
106,564087503,87.03797149658203,54.52991485595703,41.36210250854492,-10.38581466674805,6.77279424667358,1.02407526969910,158.29713439941406,-107.13368988037109,61.39393997192383
107,564095836,87.14386749267578,54.00540924072266,39.92843627929688,-10.44596481323242,7.08288574218750,0.76308637857437,150.96589660644531,-103.26822662353516,57.31357955932617
108,564104169,87.23352050781250,53.49547958374023,38.53223800659180,-10.51276111602783,6.65528774261475,0.35887423157692,144.65686035156250,-101.24256896972656,54.38890075683594
109,564112502,87.36817932128906,53.03814315795898,37.21362304687500,-10.21429347991943,6.39503288269043,0.33434146642685,141.80068969726562,-96.54985046386719,49.89693069458008
110,564120835,87.50879669189453,52.61448287963867,36.00994491577148,-9.66864299774170,6.15765428543091,-0.01356919482350,130.74734497070312,-88.75272369384766,45.01721572875977
111,564129168,87.70465087890625,52.24176025390625,34.92095947265625,-9.14653301239014,5.05345726013184,-0.03515261039138,125.91230010986328,-80.91542816162109,41.14337921142578
112,564137501,87.95374298095703,51.89133834838867,33.93015289306641,-9.28820991516113,4.69229555130005,0.18700632452965,122.44965362548828,-73.92336273193359,37.38177108764648
113,564145834,88.21788787841797,51.56886291503906,33.00716018676758,-9.72978782653809,4.01503705978394,-0.09248134493828,117.43379211425781,-69.14568328857422,34.51367568969727
114,564154167,88.55588531494141,51.29768753051758,32.15647506713867,-9.77190589904785,3.41729760169983,-0.38885420560837,119.29425811767578,-63.93033981323242,31.30594444274902
115,564162500,88.95464324951172,51.06274032592773,31.35520935058594,-9.97525119781494,4.31836795806885,-0.29308938980103,121.66938781738281,-60.42665863037109,28.96657943725586
116,564170833,89.31568908691406,50.78704071044922,30.53894424438477,-10.60122776031494,4.57927608489990,-0.05144126713276,118.14776611328125,-61.52787399291992,30.27572631835938
117,564179166,89.72758483886719,50.53932952880859,29.71864128112793,-10.15532398223877,4.19396257400513,0.10802091658115,124.34677886962891,-61.93187332153320,27.33573722839355
118,564187499,90.12616729736328,50.34247970581055,28.88910484313965,-10.68632316589355,4.36500549316406,0.51183760166168,123.58026885986328,-62.84492111206055,26.59013938903809
119,564195832,90.47946929931641,50.17849349975586,28.01190948486328,-10.61246013641357,3.99162817001343,0.77855086326599,122.64032745361328,-66.31661224365234,23.98213577270508
120,564204165,90.79454803466797,49.97298431396484,27.05492591857910,-10.53276443481445,3.56666660308838,0.99621188640594,124.66191101074219,-72.71302032470703,23.60829162597656
121,564212498,91.05323791503906,49.75260162353516,25.99368858337402,-10.59579372406006,3.88937711715698,1.61061239242554,127.18522644042969,-80.94573211669922,25.89660072326660
122,564220831,91.25843048095703,49.59078598022461,24.83829879760742,-10.51724529266357,3.31228971481323,2.14292526245117,130.31681823730469,-87.65853881835938,26.16165924072266
123,564229164,91.38713073730469,49.43812179565430,23.68830680847168,-10.15701293945312,3.34287810325623,2.30167937278748,121.31145477294922,-86.55458068847656,26.20663070678711
124,564237497,91.57682037353516,49.22194671630859,22.59364509582520,-9.59972381591797,2.24731731414795,1.85981297492981,121.18165588378906,-84.20445251464844,26.27680397033691
125,564245830,91.83075714111328,49.04100036621094,21.60078048706055,-8.94139862060547,3.29645800590515,1.47392761707306,119.35052490234375,-76.57183074951172,22.14936637878418
126,564254163,91.98881530761719,48.90558242797852,20.60237693786621,-9.95759010314941,3.41467571258545,1.60184288024902,111.22113037109375,-74.44277954101562,25.35230827331543
127,564262496,92.14829254150391,48.77765655517578,19.60065269470215,-9.97445869445801,3.67086243629456,1.68580937385559,111.74485778808594,-74.64037322998047,24.85735893249512
128,564270829,92.31875610351562,48.57883071899414,18.64395713806152,-10.17951583862305,4.18822193145752,1.94927847385406,105.46209716796875,-74.11241149902344,24.92166900634766
129,564279162,92.46912384033203,48.38262939453125,17.70776557922363,-10.56491184234619,3.24470186233521,1.54511320590973,100.94314575195312,-72.71321105957031,24.76544570922852
130,564287495,92.57621765136719,48.30149841308594,16.76097106933594,-9.86743354797363,3.02838206291199,1.10542714595795,100.37660217285156,-70.58691406250000,19.72156143188477
131,564295828,92.70214843750000,48.14694976806641,15.86176204681396,-10.31560611724854,3.19145226478577,0.97738683223724,94.36645507812500,-70.25371551513672,19.96508598327637
132,564304161,92.67000579833984,48.07402420043945,14.84353828430176,-10.54061794281006,3.47054386138916,1.12369084358215,89.85459136962891,-76.53265380859375,19.83383941650391
133,564312494,92.60651397705078,47.91135406494141,13.75328254699707,-10.92260932922363,4.04334878921509,1.87818682193756,88.37808990478516,-85.86159515380859,21.65851783752441
134,564320827,92.29965972900391,47.77889251708984,12.48264122009277,-10.84782218933105,5.02139711380005,1.03787708282471,78.99556732177734,-97.04313659667969,28.01430702209473
135,564329160,92.06658172607422,47.59660720825195,11.18226623535156,-9.57752513885498,4.07251214981079,1.11340510845184,90.33580780029297,-99.53939819335938,33.72752380371094
136,564337493,92.14453887939453,47.35743331909180,10.15946292877197,-8.64546012878418,4.17583560943604,1.13159608840942,98.60057830810547,-81.14667510986328,29.85425567626953
137,564345826,92.26001739501953,47.19596481323242,9.28822231292725,-9.50497722625732,3.92197132110596,1.34087264537811,89.44858551025391,-69.43315124511719,20.21506690979004
138,564354159,92.34657287597656,47.15897369384766,8.46652030944824,-9.69321346282959,3.91954112052917,0.64513587951660,85.68547821044922,-62.15537643432617,14.39229774475098
139,564362492,92.50553894042969,47.14857864379883,7.65546417236328,-10.61958122253418,3.98779273033142,1.71090519428253,93.18383789062500,-61.62633895874023,11.43442344665527
140,564370825,92.67463684082031,47.05109024047852,6.91813898086548,-9.79001808166504,4.87528991699219,0.62381690740585,83.89186859130859,-58.94189834594727,12.53052616119385
141,564379158,92.88947296142578,46.98121261596680,6.22565793991089,-10.21509552001953,3.47263574600220,2.24156665802002,85.35686492919922,-55.47905731201172,9.25327873229980
142,564387491,92.99343872070312,47.00138092041016,5.52467441558838,-10.15227985382080,4.52402400970459,1.15322542190552,76.82852172851562,-52.80573272705078,7.92874336242676
143,564395824,93.13804626464844,47.02048873901367,4.83173131942749,-11.55475902557373,4.79346895217896,2.02325320243835,81.23186492919922,-51.88468933105469,8.54982089996338
144,564404157,93.28860473632812,46.93600845336914,4.17279815673828,-11.59127521514893,5.33727979660034,0.96243131160736,74.66110229492188,-52.60069274902344,11.26898956298828
145,564412490,93.50505828857422,46.87945556640625,3.50726461410522,-13.31769084930420,3.43638062477112,3.53139972686768,83.08456420898438,-53.36266326904297,8.13161563873291
146,564420823,93.50524139404297,46.89945602416992,2.75831341743469,-11.55067825317383,6.95188951492310,1.27066373825073,68.95416259765625,-56.26086044311523,9.46401500701904
147,564429156,93.58817291259766,46.86256790161133,2.04965782165527,-12.81508731842041,4.56709432601929,2.24414706230164,75.92211151123047,-51.97718429565430,16.85240173339844
148,564437489,93.71589660644531,46.76833343505859,1.33594024181366,-12.24272632598877,5.53975820541382,2.45726180076599,76.56469726562500,-57.07695388793945,13.13972187042236
149,564445822,93.75578308105469,46.64233398437500,0.63801985979080,-11.73282527923584,6.56313514709473,2.71745324134827,64.52751159667969,-55.62935638427734,16.95325469970703
150,564454155,93.75893402099609,46.62646484375000,-0.05889064446092,-12.80054473876953,5.03999280929565,2.17705559730530,65.70708465576172,-50.78721618652344,15.04038906097412
151,564462488,93.67677307128906,46.62011718750000,-0.77957695722580,-12.39220714569092,5.98271703720093,2.15160655975342,57.90514373779297,-52.47573089599609,14.16977119445801
152,564470821,93.66528320312500,46.51476669311523,-1.37950813770294,-12.33095264434814,6.11646842956543,1.68213248252869,49.69034194946289,-47.89253616333008,13.90679550170898
153,564479154,93.63784790039062,46.42617034912109,-1.98005330562592,-12.19537639617920,5.98496198654175,0.65249800682068,47.74339294433594,-48.15928649902344,11.89583873748779
154,564487487,93.50620269775391,46.45346450805664,-2.67196249961853,-12.01562309265137,5.70597791671753,1.34036839008331,49.49855041503906,-50.40400314331055,9.82184791564941
155,564495820,93.35037994384766,46.53056335449219,-3.30430150032043,-11.70366001129150,5.65013217926025,1.90075004100800,41.00189590454102,-46.21517181396484,3.59922242164612
156,564504153,93.27169799804688,46.58858489990234,-3.82603335380554,-11.08428573608398,4.52663516998291,1.89769184589386,34.80750274658203,-42.68911361694336,-6.34403514862061
157,564512486,93.16396331787109,46.70983886718750,-4.28165149688721,-10.12695693969727,4.23881435394287,1.48768126964569,25.61697387695312,-37.59584045410156,-14.30005931854248
158,564520819,92.99137878417969,46.98730087280273,-4.72311067581177,-9.36773681640625,3.62045431137085,0.80525189638138,22.76087379455566,-31.32284164428711,-21.46521568298340
159,564529152,92.86376953125000,47.30474472045898,-5.10465717315674,-9.17362785339355,3.57602119445801,0.51984184980392,22.63743400573730,-26.76439476013184,-26.56460189819336
160,564537485,92.87014007568359,47.54009628295898,-5.37273359298706,-9.36798000335693,3.29868078231812,0.40628439188004,23.24157905578613,-22.46025085449219,-28.99952125549316
161,564545818,92.92643737792969,47.78968048095703,-5.60142517089844,-9.57001018524170,3.28737068176270,0.41841354966164,25.83166885375977,-19.28029251098633,-30.85692405700684
162,564554151,92.91127777099609,48.12646484375000,-5.85383462905884,-9.91193008422852,3.38651108741760,0.58873248100281,24.38596725463867,-16.52949333190918,-29.44297790527344
163,564562484,92.95420074462891,48.45661544799805,-6.07545471191406,-10.23536205291748,3.22461891174316,0.95735460519791,28.16320228576660,-14.37295150756836,-28.48224449157715
164,564570817,93.07806396484375,48.67140197753906,-6.19792556762695,-10.53792667388916,3.54488277435303,1.21186804771423,24.67260932922363,-10.37963008880615,-27.10784530639648
165,564579150,93.15345001220703,48.98521423339844,-6.35794258117676,-10.76064205169678,3.18072247505188,0.91093134880066,26.49539756774902,-9.35762119293213,-26.29149436950684
166,564587483,93.28285217285156,49.18733215332031,-6.46090602874756,-10.69206714630127,3.57458186149597,0.77663791179657,23.65892410278320,-8.75332927703857,-25.64188957214355
167,564595816,93.34360504150391,49.47119140625000,-6.60868835449219,-11.05343914031982,2.33252143859863,0.21259586513042,23.50933265686035,-8.28627681732178,-22.22468566894531
168,564604149,93.55986022949219,49.66588592529297,-6.68921947479248,-10.84161376953125,2.73492813110352,0.22606515884399,32.09560394287109,-6.97526597976685,-24.82736206054688
169,564612482,93.63595581054688,49.93504333496094,-6.81655788421631,-11.58511638641357,2.85899901390076,-0.15555822849274,23.08874320983887,-6.96860218048096,-19.62932014465332
170,564620815,93.86833953857422,50.09126281738281,-6.94230175018311,-12.01418685913086,2.46904826164246,0.43957579135895,38.24024581909180,-10.21542263031006,-19.95425033569336
171,564629148,93.86350250244141,50.35232543945312,-7.15046167373657,-12.42009258270264,4.23028326034546,0.81693565845490,20.50241661071777,-13.38745498657227,-17.21601867675781
172,564637481,93.91695404052734,50.46313858032227,-7.41057872772217,-12.53919601440430,1.47371089458466,-0.04309561476111,29.26432418823242,-20.06171989440918,-13.79706096649170
173,564645814,93.97644042968750,50.74106597900391,-7.70694971084595,-12.67744350433350,4.27702474594116,1.69777727127075,36.36198043823242,-20.17446136474609,-17.77696418762207
174,564654147,93.83613586425781,50.84572219848633,-8.05370903015137,-13.84892654418945,3.49268603324890,0.70541459321976,14.20041561126709,-26.41112709045410,-12.61836433410645
175,564662480,93.71321105957031,51.09394836425781,-8.49506855010986,-13.04289722442627,2.52059745788574,0.16670739650726,28.44918823242188,-30.22178459167480,-12.96749687194824
176,564670813,93.64645385742188,51.21231079101562,-8.89782524108887,-13.86818695068359,3.64232563972473,0.93651604652405,28.42669677734375,-30.47856903076172,-14.10976409912109
177,564679146,93.42501831054688,51.47362136840820,-9.40668582916260,-14.44276905059814,3.04245543479919,0.27900651097298,23.15028572082520,-34.95507431030273,-13.42443084716797
178,564687479,93.28063964843750,51.58731460571289,-9.91583156585693,-14.27808284759521,2.76353216171265,0.38835287094116,29.30605125427246,-38.05531692504883,-13.27812671661377
179,564695812,93.08541107177734,51.89841461181641,-10.48108673095703,-14.14889812469482,2.61962389945984,0.47037720680237,31.79444122314453,-39.01330566406250,-18.19717979431152
180,564704145,92.89573669433594,52.04105758666992,-11.05094718933105,-14.21669960021973,2.43340039253235,0.38155379891396,29.89834785461426,-42.28044128417969,-16.77671813964844
181,564712478,92.68002319335938,52.36984252929688,-11.73624420166016,-14.10836029052734,2.22916173934937,1.42554354667664,41.05508422851562,-47.25558471679688,-19.08243560791016
182,564720811,92.49392700195312,52.55434417724609,-12.36211299896240,-13.77661609649658,2.52306747436523,1.88115108013153,36.01829147338867,-46.02681732177734,-21.93486022949219
183,564729144,92.19984436035156,52.90710449218750,-13.09171485900879,-13.38847255706787,2.69820666313171,0.98273897171021,36.88448333740234,-49.09300613403320,-21.34761047363281
184,564737477,92.03823089599609,53.10274505615234,-13.79739475250244,-13.10069084167480,1.73671221733093,1.34894454479218,47.04386520385742,-51.10657119750977,-23.45807456970215
185,564745810,91.86309814453125,53.52976226806641,-14.47308349609375,-12.21219635009766,2.32219076156616,1.55905628204346,46.75174713134766,-44.24000930786133,-30.24077224731445
186,564754143,91.76548767089844,53.72542953491211,-15.09109497070312,-12.01576328277588,1.23801195621490,0.96825522184372,46.79732131958008,-44.01856231689453,-23.95889663696289
187,564762476,91.71723937988281,54.15545272827148,-15.68978118896484,-10.89372920989990,0.94168877601624,1.14553833007812,55.23317718505859,-37.61233520507812,-30.72010040283203
188,564770809,91.71082305908203,54.39988327026367,-16.22290802001953,-11.55895614624023,2.04946589469910,1.59949386119843,49.96727752685547,-37.53127288818359,-30.08370208740234
189,564779142,91.63630676269531,54.82276916503906,-16.79518699645996,-10.55264472961426,1.42114412784576,1.13802647590637,50.15502166748047,-34.67335128784180,-29.97749519348145
190,564787475,91.68083953857422,55.06778717041016,-17.26153373718262,-9.98171901702881,1.71154737472534,1.59744679927826,49.95209884643555,-32.29725646972656,-30.33963203430176
191,564795808,91.63146972656250,55.50457763671875,-17.75273895263672,-9.23378086090088,1.72095894813538,1.73156762123108,45.73802947998047,-28.23216629028320,-32.20423126220703
192,564804141,91.70310974121094,55.76295471191406,-18.14382743835449,-8.38319873809814,2.33719515800476,1.46337962150574,46.13661575317383,-26.69889640808105,-32.10108184814453
193,564812474,91.64067840576172,56.20849609375000,-18.63767623901367,-7.73390626907349,2.12345528602600,0.36417436599731,44.98331069946289,-27.52585601806641,-34.30747604370117
194,564820807,91.68790435791016,56.45474243164062,-19.05196571350098,-7.39655256271362,3.25286912918091,0.92592877149582,45.84200286865234,-27.72582626342773,-30.61893844604492
195,564829140,91.67218780517578,56.89509201049805,-19.53820228576660,-6.73567295074463,2.43461728096008,0.22692440450191,49.98214340209961,-26.61840248107910,-35.35873031616211
196,564837473,91.74938201904297,57.21718597412109,-19.91960144042969,-6.78066635131836,3.93043279647827,-0.41939452290535,46.47357177734375,-25.34941673278809,-39.77292251586914
197,564845806,91.63906097412109,57.63551330566406,-20.42325019836426,-7.34897947311401,4.21960830688477,0.00322201661766,40.28944778442383,-27.59710884094238,-34.63717651367188
198,564854139,91.64985656738281,57.90721893310547,-20.87980651855469,-7.19832086563110,3.43920612335205,0.10966464132071,46.44454574584961,-29.46015739440918,-33.63129806518555
199,564862472,91.63552856445312,58.32020568847656,-21.39299392700195,-6.91731643676758,2.50088787078857,-0.57027405500412,52.80901336669922,-27.94548797607422,-35.87428665161133
200,564870805,91.84729766845703,58.60090637207031,-21.72716712951660,-6.43321275711060,2.81002044677734,-0.64854955673218,58.38800811767578,-21.30815315246582,-34.91196060180664
201,564879138,92.08438110351562,58.98617553710938,-22.02555465698242,-5.88315248489380,2.50128865242004,-1.05948579311371,60.71640014648438,-14.81117630004883,-34.04386138916016
202,564887471,92.44771575927734,59.21211242675781,-22.25436592102051,-5.82914018630981,2.92026972770691,-0.93478143215179,65.95711517333984,-14.47980690002441,-28.41823959350586
203,564895804,92.84721374511719,59.37258148193359,-22.51224327087402,-6.14778137207031,2.40846419334412,-0.43446928262711,73.35382080078125,-15.99249839782715,-20.38385200500488
204,564904137,93.25111389160156,59.68538284301758,-22.80529785156250,-4.87061834335327,2.09803819656372,-1.62408399581909,79.75244903564453,-15.11863040924072,-26.40287590026855
205,564912470,93.70960998535156,59.91067123413086,-23.05077743530273,-4.40051937103271,4.70242357254028,-1.21153628826141,80.87014770507812,-12.55047607421875,-16.94024467468262
206,564920803,94.25485229492188,59.96798324584961,-23.20880126953125,-4.82175064086914,4.28953027725220,-0.81726467609406,80.64284515380859,-9.27075386047363,-8.08229827880859
207,564929136,94.81698608398438,60.03720474243164,-23.40201377868652,-4.27262020111084,4.37814092636108,-0.98493909835815,86.34288787841797,-11.53031158447266,-9.24079418182373
208,564937469,95.41046142578125,60.18022918701172,-23.53525352478027,-3.51699113845825,5.20915651321411,-1.52787196636200,85.02640533447266,-6.16890716552734,-9.91388607025146
209,564945802,96.08285522460938,60.25906372070312,-23.56488800048828,-4.16087007522583,5.91880655288696,-0.86298424005508,83.24208831787109,-0.35807639360428,-5.62170553207397
210,564954135,96.65010070800781,60.25667953491211,-23.67355728149414,-5.40563535690308,6.96451425552368,-0.27146607637405,78.19509887695312,-5.71375989913940,-0.87640863656998
211,564962468,97.02983093261719,60.26385879516602,-23.85609817504883,-5.37761735916138,6.72657442092896,-1.11575746536255,63.39039230346680,-10.21044826507568,-1.43925642967224
212,564970801,97.33645629882812,60.28153610229492,-24.09274291992188,-5.09706640243530,6.71823120117188,-1.86443305015564,60.84692001342773,-12.28312873840332,0.37742701172829
213,564979134,97.57766723632812,60.23766708374023,-24.34273338317871,-5.76304531097412,7.81500434875488,-1.48655760288239,54.08933258056641,-12.87924194335938,5.73276281356812
214,564987467,97.66883087158203,60.17907714843750,-24.68459510803223,-6.15936088562012,7.95399570465088,-1.24056732654572,45.34571456909180,-18.58832550048828,7.79655361175537
215,564995800,97.62853240966797,60.12752151489258,-25.14719009399414,-5.99692678451538,8.05115222930908,-1.58245968818665,42.11453247070312,-25.87557029724121,7.93051719665527
216,565004133,97.53644561767578,60.06613159179688,-25.58703041076660,-5.71906471252441,8.37689399719238,-1.78726494312286,33.66097640991211,-24.40598678588867,7.51822471618652
217,565012466,97.39989471435547,59.99227905273438,-26.06853485107422,-5.50515747070312,8.47418117523193,-2.52015304565430,32.48074722290039,-27.23083114624023,7.86862897872925
218,565020799,97.19226074218750,59.93773269653320,-26.59235954284668,-5.64771413803101,8.83374118804932,-2.42992520332336,28.29988288879395,-29.69405364990234,8.60701084136963
219,565029132,96.91269683837891,59.90657806396484,-27.19059944152832,-5.84093809127808,7.80436038970947,-2.85590791702271,27.37415885925293,-34.56528091430664,6.24788665771484
220,565037465,96.63587951660156,59.85561370849609,-27.78700828552246,-6.10236835479736,7.37183332443237,-2.94675469398499,27.16045570373535,-35.34661483764648,4.44389724731445
221,565045798,96.36940765380859,59.81349563598633,-28.39575004577637,-6.67194128036499,6.78298425674438,-3.03288960456848,29.28821754455566,-36.88027954101562,2.88757491111755
222,565054131,96.09350585937500,59.83154296875000,-29.02060699462891,-7.04605913162231,5.63378524780273,-3.41748142242432,30.51434898376465,-37.02374267578125,0.05937391519547
223,565062464,95.87880706787109,59.89702224731445,-29.61012458801270,-6.77349901199341,5.23356914520264,-3.91837143898010,34.21981811523438,-35.46031188964844,-5.99104166030884
224,565070797,95.79759216308594,59.94445419311523,-30.02369880676270,-6.51685142517090,5.77869653701782,-3.72740626335144,30.87106895446777,-26.86685371398926,-9.10732173919678
225,565079130,95.78711700439453,59.98913574218750,-30.37246131896973,-6.77455043792725,6.21666049957275,-3.42406988143921,32.21491241455078,-23.50561523437500,-8.79761886596680
226,565087463,95.65246582031250,60.04245376586914,-30.84810638427734,-7.14488697052002,6.71634435653687,-3.16118359565735,32.08298492431641,-28.34016036987305,-5.40188503265381
227,565095796,95.43338012695312,60.06048202514648,-31.41935539245605,-7.10944843292236,6.84264135360718,-2.95801067352295,31.90847969055176,-33.58865737915039,-0.72786819934845
228,565104129,95.24545288085938,60.01455688476562,-31.97021102905273,-7.02092885971069,6.69519233703613,-2.93909907341003,31.71867752075195,-34.80306625366211,3.08995342254639
229,565112462,95.03517150878906,59.94272613525391,-32.54889297485352,-7.21241903305054,6.76212263107300,-2.76731967926025,31.79998397827148,-36.40695953369141,6.20124530792236
230,565120795,94.71896362304688,59.91120910644531,-33.20635223388672,-7.03697109222412,6.30450630187988,-3.15822577476501,29.13246536254883,-38.38692092895508,5.25046873092651
231,565129128,94.43711090087891,59.86104965209961,-33.80486679077148,-6.84622621536255,7.42712974548340,-3.04521799087524,27.10672187805176,-34.75876998901367,6.99566888809204
232,565137461,94.26293945312500,59.78285598754883,-34.26063919067383,-6.80147218704224,7.50296640396118,-3.13732933998108,23.14846038818359,-29.41415786743164,6.03894758224487
233,565145794,94.11227416992188,59.68328475952148,-34.70716094970703,-6.51993417739868,8.45486354827881,-3.49340701103210,24.87570762634277,-28.91732025146484,8.20217609405518
234,565154127,93.87239074707031,59.59852218627930,-35.19868850708008,-6.34726333618164,8.53493881225586,-3.11541390419006,20.91059112548828,-28.34921646118164,10.34526920318604
235,565162460,93.59401702880859,59.50227355957031,-35.71635818481445,-6.14922523498535,8.27366256713867,-3.58293843269348,18.94656753540039,-29.98110198974609,11.69516849517822
236,565170793,93.36666870117188,59.35636520385742,-36.19770050048828,-6.31724357604980,8.00491714477539,-3.66545009613037,18.98127365112305,-31.32006454467773,13.04298973083496
237,565179126,93.10546112060547,59.22381973266602,-36.70400619506836,-6.55975055694580,7.33554267883301,-3.85629868507385,17.26091766357422,-33.39033508300781,11.02266502380371
238,565187459,92.77529907226562,59.14546203613281,-37.25463104248047,-6.76021289825439,7.40008068084717,-3.63362669944763,15.92651557922363,-32.64006805419922,9.24365139007568
239,565195792,92.42912292480469,59.09434127807617,-37.77590560913086,-7.09139966964722,6.96326446533203,-3.41986036300659,10.94266891479492,-31.11186027526855,5.70480775833130
240,565204125,92.16488647460938,59.03031921386719,-38.22506332397461,-6.87043666839600,6.61176347732544,-3.74113440513611,10.64326286315918,-30.94933509826660,2.16724801063538
241,565212458,91.96686553955078,58.96041870117188,-38.59296035766602,-6.38946294784546,6.95822668075562,-3.83946108818054,10.04488468170166,-26.16645812988281,2.73442411422729
242,565220791,91.75531768798828,58.91444778442383,-38.94032287597656,-6.27636957168579,7.32927799224854,-3.60519623756409,9.11979961395264,-20.63605499267578,4.32908964157104
243,565229124,91.51160430908203,58.84962081909180,-39.32582855224609,-6.27450084686279,7.47431850433350,-3.82720541954041,9.15549182891846,-22.99298858642578,6.57513952255249
244,565237457,91.35443115234375,58.72980499267578,-39.64656448364258,-6.11463260650635,7.67996740341187,-3.81250929832458,9.83251762390137,-23.53082656860352,8.36133766174316
245,565245790,91.23630523681641,58.62351989746094,-39.91544723510742,-6.06899690628052,7.44361543655396,-3.93675589561462,9.00064182281494,-20.63991928100586,6.40164041519165
246,565254123,91.02114105224609,58.56277847290039,-40.26998138427734,-6.72994804382324,7.86989450454712,-3.33781719207764,9.28452396392822,-21.34264755249023,5.83910083770752
247,565262456,90.74861907958984,58.53524017333984,-40.63437271118164,-7.01599931716919,6.90232324600220,-4.05303239822388,3.40121340751648,-22.07969474792480,1.77537441253662
248,565270789,90.62539672851562,58.48523712158203,-40.88219451904297,-7.14934062957764,7.63023233413696,-3.79339408874512,6.03461360931396,-19.76870155334473,-0.67945629358292
249,565279122,90.53342437744141,58.45915222167969,-41.03826141357422,-7.34251213073730,7.71992349624634,-3.96221208572388,0.23629133403301,-14.27318763732910,-3.57691287994385
250,565287455,90.33239746093750,58.47676086425781,-41.27827072143555,-8.19775295257568,8.52003097534180,-3.01382184028625,-0.78265601396561,-14.39677906036377,-3.88541173934937
251,565295788,89.99729156494141,58.54354476928711,-41.58652496337891,-8.28631210327148,7.10644435882568,-4.11152839660645,-9.86833858489990,-18.66414260864258,-9.84192943572998
252,565304121,89.88385009765625,58.59627532958984,-41.75949478149414,-7.49644374847412,7.45235490798950,-4.95001363754272,-0.68153095245361,-15.41066741943359,-13.22298049926758
253,565312454,89.84350585937500,58.62372589111328,-41.82591247558594,-8.22418880462646,9.09713363647461,-3.89729022979736,-3.06206750869751,-9.09586143493652,-10.02232742309570
254,565320787,89.59117889404297,58.71188354492188,-42.04238891601562,-8.50257301330566,7.39706707000732,-5.53081798553467,-9.29741954803467,-12.77439975738525,-12.53267765045166
255,565329120,89.45295715332031,58.78826522827148,-42.23417663574219,-7.84319543838501,8.77451992034912,-5.17519283294678,1.88433718681335,-11.18134593963623,-11.15147876739502
256,565337453,89.37719726562500,58.81531143188477,-42.26749420166016,-7.82690095901489,9.43635368347168,-4.82473564147949,-10.96559715270996,-7.36131572723389,-10.04689121246338
257,565345786,89.32911682128906,58.80730056762695,-42.28342819213867,-7.94737386703491,9.14194869995117,-5.14616584777832,-9.70537567138672,-6.72667026519775,-6.21469259262085
258,565354119,89.02101135253906,58.84201049804688,-42.48872756958008,-8.06717967987061,8.39610290527344,-5.42557430267334,-17.10461807250977,-12.00991821289062,-6.23754262924194
259,565362452,88.81494903564453,58.88113403320312,-42.64684295654297,-7.54305696487427,7.87066125869751,-5.86004257202148,-9.69236564636230,-9.03769111633301,-6.76568174362183
260,565370785,88.75479125976562,58.85517883300781,-42.67696380615234,-7.96749591827393,8.06516361236572,-5.57626152038574,-10.01302814483643,-8.08127880096436,-4.33184194564819
261,565379118,88.60890197753906,58.84745025634766,-42.80797958374023,-8.46855449676514,7.76584434509277,-6.13729619979858,-5.25738620758057,-7.47119998931885,-1.14394474029541
262,565387451,88.59761810302734,58.75883483886719,-42.86399459838867,-8.82423782348633,8.56035327911377,-5.63104867935181,-1.87133777141571,-10.38940334320068,3.10815954208374
263,565395784,88.52576446533203,58.64454269409180,-42.95537948608398,-8.61775779724121,8.28769588470459,-6.18773508071899,-5.90447902679443,-13.18578815460205,6.18911790847778
264,565404117,88.35940551757812,58.53406524658203,-43.14051055908203,-8.49308586120605,9.47274494171143,-5.68858814239502,-2.20836997032166,-11.25503730773926,11.04990482330322
265,565412450,88.14946746826172,58.36732101440430,-43.30247879028320,-8.43639850616455,8.79652690887451,-5.92752361297607,-15.66251564025879,-18.36218070983887,12.16075229644775
266,565420783,87.86347198486328,58.25367355346680,-43.53214645385742,-7.25486946105957,8.29590034484863,-6.84310865402222,-12.08094596862793,-14.26358795166016,11.23522758483887
267,565429116,87.77957153320312,58.08017349243164,-43.56285095214844,-7.30435514450073,9.55732917785645,-5.63705110549927,-14.42400741577148,-10.81624126434326,13.04008293151855
268,565437449,87.51324462890625,57.93835830688477,-43.69977188110352,-7.81822586059570,8.83921813964844,-6.23068571090698,-19.23434257507324,-8.71794986724854,14.75260448455811
269,565445782,87.38948822021484,57.72617721557617,-43.77999114990234,-8.60617733001709,8.68174552917480,-5.92717313766479,-14.44532299041748,-14.54017353057861,17.22496795654297
270,565454115,87.10618591308594,57.56967926025391,-43.99656677246094,-8.35218334197998,8.14747619628906,-5.98097324371338,-13.25484752655029,-14.11574363708496,16.19898986816406
271,565462448,87.08050537109375,57.35803604125977,-44.00860214233398,-8.03179740905762,8.64406394958496,-6.04893827438354,-9.74387836456299,-10.37964820861816,17.58174705505371
272,565470781,86.82736968994141,57.16249084472656,-44.18793106079102,-8.88916778564453,8.78528881072998,-5.74955272674561,-13.49641799926758,-12.19098758697510,20.91803169250488
273,565479114,86.74851989746094,56.93188095092773,-44.19725418090820,-8.36514186859131,7.69944906234741,-6.80745649337769,-16.45030593872070,-10.36464118957520,20.06149291992188
274,565487447,86.57901763916016,56.74247741699219,-44.30130386352539,-8.20302486419678,8.44012832641602,-6.07003116607666,-11.09702777862549,-7.46784734725952,20.40287590026855
275,565495780,86.50888824462891,56.50869369506836,-44.25861358642578,-8.66022109985352,8.09802055358887,-5.97824335098267,-20.72460556030273,-7.04319000244141,20.99641418457031
276,565504113,86.25914001464844,56.31616592407227,-44.37130737304688,-8.41167640686035,7.29379367828369,-7.14555692672729,-19.92218780517578,-8.24582958221436,20.68939971923828
277,565512446,86.29996490478516,56.09694671630859,-44.28322982788086,-7.87448596954346,7.92589139938354,-6.32859945297241,-11.98988723754883,-3.94714236259460,19.91126060485840
278,565520779,86.17403411865234,55.91948699951172,-44.28913497924805,-7.96700382232666,7.64538431167603,-6.17107152938843,-15.74206829071045,-1.11530840396881,19.32886886596680
279,565529112,86.24750518798828,55.70524978637695,-44.13905334472656,-7.97104263305664,7.05325603485107,-7.06219816207886,-14.18008708953857,0.43362355232239,19.89097404479980
280,565537445,86.22965240478516,55.51591491699219,-44.09454727172852,-7.98043155670166,7.89433860778809,-6.07155227661133,-7.76955699920654,2.19555068016052,20.97373962402344
281,565545778,86.31377410888672,55.29254150390625,-43.94438552856445,-8.28084945678711,7.33173036575317,-5.90496778488159,-12.89788818359375,0.57173568010330,21.31937980651855
282,565554111,86.26467132568359,55.11263275146484,-43.93382644653320,-7.73328685760498,6.22564411163330,-7.31654691696167,-8.15028572082520,-0.00052509200759,19.69586753845215
283,565562444,86.49015045166016,54.89145278930664,-43.77495193481445,-8.10665416717529,8.21487617492676,-5.16817808151245,3.22708773612976,1.39169871807098,21.55261993408203
284,565570777,86.39202880859375,54.72750091552734,-43.76776885986328,-8.69418621063232,6.40710449218750,-5.71409797668457,-13.70089340209961,-0.04988374188542,17.76783370971680
285,565579110,86.50128936767578,54.54742813110352,-43.68946838378906,-8.39189434051514,5.65753793716431,-7.07623529434204,-2.63266992568970,-3.48078346252441,16.61506271362305
286,565587443,86.55297088623047,54.40894699096680,-43.69721221923828,-7.73740530014038,7.57949256896973,-5.30953073501587,5.73679542541504,-0.87043589353561,14.65631389617920
287,565595776,86.69351196289062,54.26453018188477,-43.55012130737305,-8.32781505584717,7.11811637878418,-5.44362735748291,-5.56480789184570,1.75175762176514,13.02330207824707
288,565604109,86.61679840087891,54.12311553955078,-43.64391708374023,-8.53272342681885,6.27468824386597,-6.38442039489746,-1.30306029319763,-6.88832139968872,14.65782356262207
289,565612442,86.71624755859375,53.96642303466797,-43.63252639770508,-7.86383724212646,7.35699796676636,-5.12613058090210,2.74933028221130,-7.68643712997437,14.31587505340576
290,565620775,86.69606018066406,53.86604690551758,-43.62444686889648,-7.40922117233276,7.05352115631104,-5.52064371109009,-4.43035411834717,0.55098789930344,10.15868377685547
291,565629108,86.82069396972656,53.74648284912109,-43.51996612548828,-7.70576953887939,7.04322147369385,-5.65255403518677,-3.13342809677124,-0.61762332916260,10.34561634063721
292,565637441,86.76786041259766,53.64260482788086,-43.55771636962891,-7.54410934448242,7.43375587463379,-5.17628717422485,-3.92278170585632,-2.70205855369568,10.39266872406006
293,565645774,86.81768035888672,53.54430770874023,-43.47465896606445,-7.39985227584839,6.90574741363525,-5.01276731491089,-9.94622707366943,-1.82133889198303,7.79144191741943
294,565654107,86.70302581787109,53.47378921508789,-43.53309631347656,-7.21547937393188,6.33899688720703,-5.51015853881836,-9.35156631469727,-3.96837592124939,6.31214237213135
295,565662440,86.79524230957031,53.40240859985352,-43.47613143920898,-6.49939727783203,6.40215635299683,-5.56197023391724,-2.26126360893250,-3.36024212837219,4.60436439514160
296,565670773,86.78482055664062,53.36297225952148,-43.47500991821289,-6.43216562271118,6.79059553146362,-4.49820709228516,-2.59304451942444,0.48869395256042,2.82653069496155
297,565679106,86.91008758544922,53.31218338012695,-43.36616134643555,-6.97662973403931,6.14638948440552,-5.12378263473511,-3.19072675704956,0.65019172430038,2.34598207473755
298,565687439,86.82991790771484,53.27404022216797,-43.48830413818359,-7.28185606002808,6.29406452178955,-4.53221035003662,0.89754843711853,-8.32804679870605,2.18789124488831
299,565695772,86.81343841552734,53.22269058227539,-43.53636550903320,-7.20778846740723,6.60790157318115,-4.35302305221558,-5.00513696670532,-10.45779323577881,1.98008298873901
300,565704105,86.57457733154297,53.16801071166992,-43.76512908935547,-7.57858324050903,7.24384927749634,-3.88184595108032,-7.91699123382568,-16.12740325927734,3.69936251640320
301,565712438,86.27504730224609,53.10385513305664,-44.02994918823242,-7.46318101882935,7.22116708755493,-3.68287110328674,-18.00488853454590,-25.94720268249512,2.56882810592651
302,565720771,85.68114471435547,53.08189773559570,-44.53861236572266,-6.88194131851196,7.29302549362183,-3.11668515205383,-23.69288825988770,-36.08374786376953,-1.84626436233521
303,565729104,85.20686340332031,53.11657714843750,-44.91651916503906,-5.79992675781250,7.29088354110718,-3.02233147621155,-27.90284919738770,-32.94671249389648,-10.28240299224854
304,565737437,84.66882324218750,53.21511840820312,-45.33139419555664,-5.52575731277466,7.73103952407837,-2.43167400360107,-25.95224189758301,-28.01936149597168,-16.31561279296875
305,565745770,84.26121520996094,53.30278778076172,-45.61748504638672,-5.53924274444580,7.64713621139526,-1.83899390697479,-28.34687042236328,-25.21408843994141,-16.74747276306152
306,565754103,83.69725036621094,53.36679077148438,-46.03531646728516,-5.48953199386597,7.18666172027588,-2.18057465553284,-28.69181823730469,-28.30148315429688,-12.68522739410400
307,565762436,83.17079162597656,53.36779022216797,-46.47276687622070,-5.34486961364746,7.91567182540894,-1.97337913513184,-27.63916206359863,-36.47547531127930,-8.29312515258789
308,565770769,82.44717407226562,53.37279891967773,-46.99073791503906,-5.44447422027588,8.54805946350098,-1.68558084964752,-38.19287490844727,-36.05208206176758,-7.14601755142212
309,565779102,81.75838470458984,53.32164764404297,-47.49963378906250,-6.15860748291016,8.60953903198242,-1.51397812366486,-39.98991775512695,-41.94057083129883,-3.96208524703979
310,565787435,80.95015716552734,53.30099105834961,-48.06196975708008,-5.64818811416626,8.42174243927002,-1.65600144863129,-44.11362838745117,-39.56329727172852,-5.51874494552612
311,565795768,80.33685302734375,53.26880264282227,-48.40761947631836,-5.25915431976318,8.36123275756836,-1.97352719306946,-46.45057678222656,-29.72892189025879,-5.63416004180908
312,565804101,79.55792999267578,53.23690414428711,-48.85140609741211,-5.48364305496216,8.21641254425049,-1.47519123554230,-52.04464340209961,-31.37437820434570,-3.70258831977844
313,565812434,78.70754241943359,53.21108627319336,-49.26922225952148,-4.91412782669067,7.63118219375610,-0.69063168764114,-63.12417221069336,-29.39467620849609,-4.52358245849609
314,565820767,77.96530914306641,53.16590118408203,-49.50093078613281,-4.10368442535400,6.99075603485107,-0.49927848577499,-72.79496002197266,-21.72729301452637,-3.89670014381409
315,565829100,77.21842193603516,53.12953948974609,-49.63472747802734,-4.21002244949341,6.54646539688110,-0.38042351603508,-82.46126556396484,-14.22071361541748,-3.93937826156616
316,565837433,76.31618499755859,53.10960388183594,-49.81723785400391,-4.04866600036621,5.49164390563965,0.21052879095078,-91.99346160888672,-12.67608070373535,-2.58924746513367
317,565845766,75.45590972900391,53.10147476196289,-49.90955352783203,-3.61991906166077,3.75968742370605,0.06109616160393,-95.61303710937500,-6.02163505554199,-2.58325481414795
318,565854099,74.74268341064453,53.09002685546875,-49.84888839721680,-3.40112662315369,2.73123526573181,-0.07262265682220,-96.76676177978516,0.57412219047546,-3.87140631675720
319,565862432,74.09429931640625,53.10134887695312,-49.72848892211914,-3.06917071342468,2.00742173194885,-0.15951055288315,-94.33926391601562,5.83658218383789,-4.94646835327148
320,565870765,73.41651916503906,53.14908599853516,-49.63926696777344,-3.16473627090454,1.37715351581573,-0.35679250955582,-91.14614868164062,8.43774986267090,-5.61566781997681
321,565879098,72.81872558593750,53.20128631591797,-49.50672149658203,-3.22028708457947,1.01163268089294,-0.66664618253708,-85.70671081542969,11.60483741760254,-5.13454914093018
322,565887431,72.40280151367188,53.22410583496094,-49.24172210693359,-3.44968366622925,1.55270731449127,-0.67022043466568,-80.02272033691406,16.49429321289062,-2.43856644630432
323,565895764,72.07873535156250,53.21191406250000,-48.94292068481445,-4.38697719573975,2.06375598907471,-0.38331368565559,-72.02956390380859,17.65321159362793,3.01550173759460
324,565904097,71.74284362792969,53.16846084594727,-48.69687652587891,-5.46658515930176,2.79605722427368,0.07248251140118,-65.18412780761719,15.85963153839111,8.54056358337402
325,565912430,71.44342803955078,53.09250640869141,-48.43254852294922,-6.33229112625122,3.42227196693420,0.02602178975940,-62.54973220825195,15.84585666656494,12.74713802337646
326,565920763,71.21233367919922,52.98733520507812,-48.08600234985352,-6.90736389160156,3.73267817497253,-0.40323328971863,-65.16862487792969,17.49284172058105,15.48746967315674
327,565929096,71.01027679443359,52.88516235351562,-47.69271850585938,-7.18848752975464,4.12109470367432,-1.04802751541138,-66.00836944580078,20.81455230712891,16.81699752807617
328,565937429,70.77545928955078,52.77872848510742,-47.33882522583008,-7.50154733657837,4.79349803924561,-0.79803907871246,-63.26497650146484,20.72638130187988,18.55559158325195
329,565945762,70.50706481933594,52.64892578125000,-47.02007293701172,-8.12923240661621,5.11851644515991,-0.14990986883640,-63.88274002075195,17.36370468139648,20.46565246582031
330,565954095,70.25772094726562,52.51705932617188,-46.70767593383789,-8.27781486511230,4.81834650039673,0.17935118079185,-63.87616729736328,13.90127372741699,18.85736656188965
331,565962428,70.02325439453125,52.40313720703125,-46.41357421875000,-8.25333881378174,4.83137083053589,-0.01286635547876,-60.24187469482422,13.33303833007812,16.82959747314453
332,565970761,69.74208068847656,52.30673599243164,-46.15590286254883,-8.36298847198486,5.07448053359985,-0.56773191690445,-59.47494506835938,14.41756343841553,15.44344043731689
333,565979094,69.49076080322266,52.21996688842773,-45.89904785156250,-8.48390960693359,5.23980045318604,-0.85693597793579,-55.77717590332031,14.71890735626221,14.41973209381104
334,565987427,69.31163787841797,52.14804458618164,-45.58786392211914,-8.47219371795654,5.45607089996338,-1.07435369491577,-55.09260559082031,16.13414573669434,13.09997844696045
335,565995760,69.13979339599609,52.09726333618164,-45.26192092895508,-8.90350055694580,5.20198392868042,-1.62463712692261,-55.65871429443359,17.87333488464355,11.46445369720459
336,566004093,68.95964050292969,52.06852340698242,-44.95808029174805,-9.14742851257324,5.38337182998657,-2.28559136390686,-51.63657379150391,20.35486984252930,9.31704807281494
337,566012426,68.84361267089844,52.05698013305664,-44.63120269775391,-9.45571231842041,6.73843336105347,-1.68527710437775,-46.10728073120117,22.66424751281738,8.06063938140869
338,566020759,68.73621368408203,52.04775619506836,-44.27358627319336,-10.56697559356689,6.84008550643921,-1.13471448421478,-51.08305740356445,21.48481559753418,8.10208702087402
339,566029092,68.58069610595703,52.04843902587891,-43.98222351074219,-10.90360927581787,6.61634445190430,-1.47842347621918,-50.74423217773438,17.12491416931152,5.41958856582642
340,566037425,68.37709045410156,52.07467269897461,-43.75632476806641,-10.82684040069580,6.86808681488037,-1.75449705123901,-47.06025314331055,17.32066726684570,1.27464401721954
341,566045758,68.16400146484375,52.13235473632812,-43.52443695068359,-10.98556995391846,6.94028997421265,-2.05991125106812,-48.77538681030273,19.10208129882812,-2.01428270339966
342,566054091,68.00744628906250,52.22302627563477,-43.26426315307617,-10.49654674530029,6.92533111572266,-2.29958915710449,-48.11689376831055,18.64025497436523,-5.10049867630005
343,566062424,67.88023376464844,52.32336425781250,-42.95803833007812,-10.63232040405273,6.85932588577271,-2.40944576263428,-49.19971084594727,21.86927032470703,-4.71236467361450
344,566070757,67.68924713134766,52.43072891235352,-42.73032379150391,-10.53344821929932,6.35569620132446,-2.83112025260925,-45.81136322021484,20.97406959533691,-7.53149747848511
345,566079090,67.56418609619141,52.53284454345703,-42.43157958984375,-10.69861984252930,7.57668256759644,-2.55745506286621,-44.68770980834961,25.51424407958984,-4.93263435363770
346,566087423,67.50679016113281,52.63894271850586,-42.07710647583008,-11.09284019470215,6.82515525817871,-2.36993169784546,-45.76863861083984,24.92990684509277,-3.80663013458252
347,566095756,67.50217437744141,52.73862457275391,-41.68171310424805,-10.90948390960693,8.12483310699463,-2.73279190063477,-43.57131195068359,27.06044769287109,-1.89467656612396
348,566104089,67.45317840576172,52.80204391479492,-41.30049514770508,-11.26211833953857,8.16071891784668,-2.84657263755798,-43.56040573120117,29.14033699035645,1.65962731838226
349,566112422,67.39845275878906,52.82492065429688,-40.93365859985352,-11.17290496826172,8.58651351928711,-3.11676740646362,-42.88512420654297,26.28151893615723,5.76623773574829
350,566120755,67.48786163330078,52.84693145751953,-40.44848251342773,-11.07867431640625,8.21815109252930,-3.49978327751160,-41.22786331176758,29.12867736816406,9.03744029998779
351,566129088,67.65265655517578,52.87206649780273,-39.92994308471680,-10.98331928253174,7.94805526733398,-3.51143646240234,-35.67897415161133,31.18516540527344,9.42872238159180
352,566137421,67.80899810791016,52.87056350708008,-39.37308502197266,-11.44815540313721,8.35038757324219,-3.30563449859619,-35.77542877197266,37.91535949707031,13.54164123535156
353,566145754,67.96987152099609,52.85075378417969,-38.82490539550781,-12.14897918701172,7.75655364990234,-3.35546088218689,-34.38794708251953,36.56113052368164,15.23807239532471
354,566154087,68.25698852539062,52.83845520019531,-38.19658660888672,-11.83914470672607,8.63574409484863,-3.77877473831177,-31.79770088195801,36.74237060546875,16.09599685668945
355,566162420,68.62048339843750,52.83404159545898,-37.48302841186523,-11.66614341735840,8.77458286285400,-3.43752837181091,-31.03655815124512,42.64325714111328,17.30294990539551
356,566170753,68.88249969482422,52.84067535400391,-36.79996871948242,-11.12380695343018,8.58476829528809,-3.27606773376465,-35.13975906372070,47.09258651733398,15.29172134399414
357,566179086,69.16436767578125,52.85515594482422,-36.04243469238281,-10.83314704895020,8.83452224731445,-3.68995046615601,-39.88415145874023,52.54048919677734,16.12007713317871
358,566187419,69.57643127441406,52.88449096679688,-35.19082260131836,-10.84491348266602,8.64366722106934,-4.09136819839478,-38.68217468261719,53.51980209350586,16.00696372985840
359,566195752,70.00852203369141,52.91844177246094,-34.28637695312500,-10.70089530944824,8.84155273437500,-3.78145074844360,-41.62387466430664,57.16775512695312,16.20456314086914
360,566204085,70.33158874511719,52.95891571044922,-33.43558120727539,-10.46798992156982,8.34925270080566,-3.40155220031738,-43.96921539306641,60.18289566040039,14.39404201507568
361,566212418,70.76051330566406,53.01059722900391,-32.49364089965820,-10.21608352661133,7.69008016586304,-3.51643776893616,-45.86363983154297,60.42680740356445,13.99976348876953
362,566220751,71.08594512939453,53.03047561645508,-31.64735794067383,-9.74280166625977,7.24962329864502,-3.05675530433655,-43.34276962280273,59.16648864746094,15.80016708374023
363,566229084,71.55353546142578,53.04277038574219,-30.72157669067383,-9.32637310028076,6.98793172836304,-2.32227611541748,-39.80092239379883,57.91425323486328,17.08638572692871
364,566237417,71.92839813232422,53.04870223999023,-29.87437438964844,-8.82235622406006,6.76798057556152,-1.99198627471924,-37.52503585815430,58.91482925415039,16.56403160095215
365,566245750,72.44085693359375,53.07229614257812,-28.93895149230957,-8.52597904205322,7.03564882278442,-1.44442045688629,-35.25403976440430,59.41995620727539,14.94366550445557
366,566254083,72.79895782470703,53.12458038330078,-28.11304664611816,-7.94443368911743,6.91185808181763,-1.02751505374908,-37.55318832397461,59.31609725952148,9.87768650054932
367,566262416,73.22695922851562,53.24945449829102,-27.21205139160156,-7.28110361099243,6.33507919311523,-1.29216277599335,-42.00110626220703,60.97296142578125,1.41375899314880
368,566270749,73.56076049804688,53.41798019409180,-26.38024902343750,-6.64524459838867,5.96668100357056,-1.61171615123749,-41.27938079833984,63.54961776733398,-4.25501966476440
369,566279082,74.06965637207031,53.58153533935547,-25.45922660827637,-6.31618738174438,6.32449102401733,-0.82850807905197,-34.33569717407227,63.50535964965820,-3.88401961326599
370,566287415,74.43830108642578,53.75154876708984,-24.68370056152344,-6.12341165542603,6.35727357864380,0.22113281488419,-32.01012420654297,59.25626373291016,-6.58228302001953
371,566295748,74.85309600830078,53.97137832641602,-23.87097740173340,-5.24899196624756,4.81858158111572,-0.18379826843739,-35.18328475952148,57.76539611816406,-13.82796764373779
372,566304081,75.19297790527344,54.18571853637695,-23.17708969116211,-5.37666702270508,4.94501399993896,-0.00028652511537,-27.91314315795898,54.48529815673828,-14.13156318664551
373,566312414,75.66744232177734,54.36347198486328,-22.47536277770996,-5.79044818878174,5.49885034561157,0.58124858140945,-17.22954559326172,48.69570159912109,-11.98737621307373
374,566320747,76.03073883056641,54.51318740844727,-21.93577766418457,-6.26094961166382,5.34048128128052,0.66056156158447,-10.35020351409912,41.55490875244141,-10.12441349029541
375,566329080,76.49507141113281,54.60136795043945,-21.38339042663574,-7.00635004043579,6.15848875045776,0.73761063814163,-3.65186405181885,36.04974746704102,-4.91270065307617
376,566337413,76.87876892089844,54.64308929443359,-20.93527412414551,-7.55294084548950,6.93202590942383,0.51995611190796,0.92259979248047,32.09640121459961,0.38633978366852
377,566345746,77.35291290283203,54.63063049316406,-20.43588447570801,-8.22514533996582,7.33906364440918,-0.04899938032031,2.99020862579346,30.06481361389160,5.36652040481567
378,566354079,77.75459289550781,54.57526397705078,-19.96899223327637,-8.78360652923584,7.97495222091675,0.23406012356281,1.25650751590729,30.90222167968750,11.57395744323730
379,566362412,78.20748901367188,54.49467086791992,-19.42956542968750,-9.00686168670654,8.06070518493652,0.14328275620937,-3.21388506889343,31.56043052673340,13.35773468017578
380,566370745,78.54305267333984,54.45769882202148,-18.92719650268555,-8.58604812622070,7.61472558975220,-0.42395275831223,-10.07384586334229,34.05887603759766,9.49548912048340
381,566379078,78.93985748291016,54.44697952270508,-18.31879806518555,-8.20387935638428,7.94385766983032,-0.61775493621826,-16.48005867004395,38.42026138305664,5.53232526779175
382,566387411,79.28404235839844,54.49206542968750,-17.70612907409668,-7.87012290954590,7.83244991302490,-1.43188679218292,-19.80508232116699,43.61882781982422,0.84962594509125
383,566395744,79.63200378417969,54.57179641723633,-17.09199523925781,-7.49266099929810,7.56021785736084,-1.35151290893555,-22.91390991210938,40.89786529541016,-5.78146409988403
384,566404077,79.88480377197266,54.71457672119141,-16.54935455322266,-6.51537227630615,6.77498817443848,-2.62512683868408,-24.04593658447266,40.76915740966797,-12.06956672668457
385,566412410,80.24420928955078,54.82421875000000,-15.95889091491699,-6.72305297851562,7.93255424499512,-1.99347329139709,-19.44138145446777,39.57355117797852,-10.27879428863525
386,566420743,80.38888549804688,55.00288772583008,-15.60993671417236,-6.41131734848022,5.70662117004395,-2.21007466316223,-18.18127441406250,27.97195816040039,-18.99555206298828
387,566429076,80.70429229736328,55.10391616821289,-15.20182800292969,-6.67856121063232,6.17555570602417,-2.62734746932983,-7.02810287475586,26.62724494934082,-11.86909484863281
388,566437409,81.00387573242188,55.21133041381836,-14.81981468200684,-7.69981861114502,6.09963607788086,-1.92346477508545,-2.95410513877869,28.54629707336426,-10.47322082519531
389,566445742,81.35250854492188,55.28400039672852,-14.43815135955811,-8.17556095123291,5.42529869079590,-2.40777969360352,-0.57177406549454,23.98720550537109,-9.08702659606934
390,566454075,81.63108825683594,55.35171890258789,-14.15741443634033,-8.34147930145264,5.19295120239258,-1.97203862667084,4.44222688674927,20.80171012878418,-7.11313915252686
391,566462408,81.98643493652344,55.39837265014648,-13.85707664489746,-8.15012073516846,4.97651624679565,-2.51371097564697,8.18472385406494,17.81247711181641,-6.80955934524536
392,566470741,82.29317474365234,55.44812011718750,-13.58966255187988,-7.92924356460571,5.12677145004272,-2.97496223449707,9.10355949401855,19.49359321594238,-5.33471775054932
393,566479074,82.71582794189453,55.48022842407227,-13.21945476531982,-7.69070768356323,5.39785480499268,-3.16214799880981,9.25750160217285,22.07256507873535,-4.43237972259521
394,566487407,83.07755279541016,55.49735260009766,-12.88905048370361,-7.52202701568604,5.98771047592163,-2.93527960777283,9.45191383361816,23.18281555175781,-1.17002046108246
395,566495740,83.52725982666016,55.47968673706055,-12.50314712524414,-7.37024927139282,6.03910875320435,-2.53503417968750,10.87409400939941,22.29279708862305,1.39646327495575
396,566504073,83.89700317382812,55.47661209106445,-12.18258666992188,-6.96047449111938,6.07058572769165,-2.62423491477966,11.38737678527832,22.26777076721191,0.84350287914276
397,566512406,84.33226776123047,55.46854782104492,-11.79533481597900,-7.23439359664917,5.82835817337036,-2.66527605056763,9.03780841827393,22.59197425842285,-0.07373061776161
398,566520739,84.70810699462891,55.46501541137695,-11.48851776123047,-7.03663969039917,5.59482717514038,-3.44211387634277,13.47814178466797,21.37191581726074,0.50339686870575
399,566529072,85.14219665527344,55.43932342529297,-11.16548919677734,-7.23827505111694,5.09176206588745,-3.59859061241150,15.24621486663818,18.08614349365234,1.36362576484680
400,566537405,85.51599121093750,55.38982772827148,-10.90132999420166,-7.13179254531860,5.49333190917969,-3.28062605857849,17.46922683715820,18.08542823791504,5.47648048400879
401,566545738,85.98232269287109,55.31258773803711,-10.58661651611328,-7.27925872802734,4.90879011154175,-3.61550235748291,19.94858741760254,17.13780593872070,7.34465694427490
402,566554071,86.41744995117188,55.19560241699219,-10.31640529632568,-7.69357442855835,5.73536443710327,-3.24107789993286,24.28452110290527,18.14437294006348,13.32561302185059
403,566562404,86.90261840820312,55.04024505615234,-10.01480388641357,-7.88208198547363,5.95816946029663,-2.94007039070129,23.55920028686523,15.97486972808838,16.50367736816406
404,566570737,87.29497528076172,54.87300872802734,-9.79543781280518,-7.69817972183228,6.42399692535400,-2.95733618736267,24.24202728271484,14.71185874938965,18.90101814270020
405,566579070,87.73940277099609,54.69935226440430,-9.53774070739746,-7.81982421875000,6.27125453948975,-3.05381083488464,23.14222335815430,13.38278293609619,18.36096382141113
406,566587403,88.10942840576172,54.53654098510742,-9.34058570861816,-7.55393505096436,6.63325548171997,-3.45831465721130,23.82502746582031,13.61251831054688,18.11263656616211
407,566595736,88.55699920654297,54.36753463745117,-9.04694080352783,-7.69608974456787,6.86969709396362,-3.38883638381958,20.10916519165039,16.40411376953125,17.66412925720215
408,566604069,88.90171813964844,54.21926879882812,-8.82660961151123,-7.89226293563843,6.63275098800659,-3.24528503417969,18.60634803771973,15.66511249542236,16.22314453125000
409,566612402,89.26514434814453,54.07320022583008,-8.61083030700684,-8.20741462707520,6.25830411911011,-3.32780861854553,17.71535301208496,11.43811893463135,14.56687450408936
410,566620735,89.56468200683594,53.95218276977539,-8.45823764801025,-7.82771825790405,6.13173389434814,-3.70968842506409,19.83339309692383,11.24119663238525,12.72251987457275
411,566629068,89.86050415039062,53.84670639038086,-8.28182220458984,-8.26452827453613,6.02996778488159,-3.75697016716003,17.10327148437500,13.04210853576660,10.81141567230225
412,566637401,90.21591186523438,53.72935867309570,-8.07789421081543,-8.39953136444092,6.23140478134155,-3.45596814155579,17.97805404663086,11.04235458374023,10.98441410064697
413,566645734,90.50762939453125,53.63732528686523,-7.93239116668701,-8.13571357727051,5.48954820632935,-3.83450841903687,16.01868629455566,6.99522399902344,8.02591514587402
414,566654067,90.72789001464844,53.54501724243164,-7.85108995437622,-7.91479015350342,5.74452018737793,-3.79108381271362,17.27862548828125,6.53662681579590,9.10550498962402
415,566662400,90.92163848876953,53.46239852905273,-7.78386402130127,-7.75252008438110,5.15644693374634,-3.98002743721008,15.47184562683105,5.57014989852905,7.93685483932495
416,566670733,91.19686126708984,53.35536956787109,-7.68595743179321,-7.25981044769287,5.23743343353271,-4.05646705627441,18.63628578186035,3.81816196441650,9.93448543548584
417,566679066,91.48880767822266,53.23899078369141,-7.58459568023682,-7.01018905639648,5.22824668884277,-4.20034790039062,20.28666305541992,4.13944149017334,11.16965579986572
418,566687399,91.73531341552734,53.10989761352539,-7.52547454833984,-7.02706766128540,5.51246023178101,-4.02555704116821,22.59963417053223,5.31165313720703,13.45834159851074
419,566695732,91.98910522460938,52.96233367919922,-7.47543907165527,-7.13578939437866,5.71031188964844,-3.80168771743774,24.36299896240234,4.81261110305786,15.67487621307373
420,566704065,92.30558776855469,52.79460906982422,-7.39693260192871,-7.30634737014771,5.62191772460938,-3.70152521133423,25.39674186706543,2.95473289489746,17.37486839294434
421,566712398,92.62785339355469,52.62250137329102,-7.32460689544678,-7.17189359664917,5.59113121032715,-4.05470848083496,26.69748687744141,2.68212056159973,17.93395233154297
422,566720731,92.88174438476562,52.44192886352539,-7.29365348815918,-7.42500972747803,6.21668195724487,-3.68425559997559,26.22080421447754,3.91957116127014,19.63084411621094
423,566729064,93.08902740478516,52.28683853149414,-7.27486705780029,-7.51689481735229,5.17956829071045,-4.27299118041992,21.79029846191406,2.96997213363647,16.60807418823242
424,566737397,93.44582366943359,52.13284683227539,-7.17185592651367,-6.76026153564453,5.76857137680054,-4.70394897460938,27.93332099914551,5.17515563964844,15.60010623931885
425,566745730,93.83769226074219,51.95525741577148,-6.97825336456299,-7.44570732116699,6.73717403411865,-4.06195354461670,23.50868797302246,12.10893535614014,18.00769424438477
426,566754063,94.13701629638672,51.79961776733398,-6.83823156356812,-7.71437454223633,6.24975728988647,-4.61059522628784,21.39755630493164,12.26763916015625,16.00685691833496
427,566762396,94.40423583984375,51.62288284301758,-6.75470972061157,-8.33201694488525,7.09135532379150,-4.00748920440674,22.89929771423340,8.39604473114014,18.78052520751953
428,566770729,94.67305755615234,51.46950912475586,-6.67138624191284,-8.49455833435059,6.45475292205811,-4.23897314071655,19.15382194519043,4.12958049774170,15.50179576873779
429,566779062,94.92961883544922,51.34026336669922,-6.63423442840576,-8.18076038360596,6.73234701156616,-4.36561965942383,22.01738929748535,0.54901576042175,12.90604591369629
430,566787395,95.08426666259766,51.22371292114258,-6.65042114257812,-8.45397472381592,7.17679405212402,-3.85435366630554,18.76719665527344,0.62972617149353,12.13418483734131
431,566795728,95.16944885253906,51.14289855957031,-6.70292139053345,-8.88026237487793,6.05156946182251,-4.29366207122803,13.82776927947998,-2.44591641426086,8.10726451873779
432,566804061,95.32701110839844,51.07560729980469,-6.72869825363159,-8.63861560821533,5.74566888809204,-4.58958911895752,15.99660587310791,-4.70332527160645,5.93563938140869
433,566812394,95.47438049316406,51.00482559204102,-6.74155855178833,-9.11554050445557,5.76522541046143,-4.16315984725952,13.51607131958008,-3.70288419723511,6.44677162170410
434,566820727,95.51676940917969,50.96060180664062,-6.84633255004883,-9.37252616882324,5.03352260589600,-4.60011625289917,13.54583454132080,-6.75456476211548,4.13923597335815
435,566829060,95.54357147216797,50.92531585693359,-6.99862718582153,-9.27042961120605,4.80895328521729,-4.35416650772095,16.10154914855957,-10.43566513061523,3.41878461837769
436,566837393,95.69872283935547,50.90807723999023,-7.05681419372559,-8.74743080139160,4.73126411437988,-4.69347906112671,18.61074638366699,-7.73543691635132,0.69908958673477
437,566845726,95.90034484863281,50.87747955322266,-7.07230186462402,-8.61993312835693,5.49127531051636,-4.34045743942261,20.14524269104004,-4.39534044265747,2.28348422050476
438,566854059,95.96589660644531,50.83075332641602,-7.19351863861084,-8.97377872467041,5.05267000198364,-4.33018112182617,17.83750343322754,-7.94078826904297,4.62685537338257
439,566862392,96.05454254150391,50.78876113891602,-7.36309528350830,-8.47201061248779,4.45187759399414,-5.33552265167236,25.10058403015137,-11.64204883575439,4.45416450500488
440,566870725,96.28437805175781,50.71436691284180,-7.43679523468018,-8.06547260284424,5.52586984634399,-4.71785211563110,28.88017845153809,-8.21176433563232,8.22919559478760
441,566879058,96.47442626953125,50.61301040649414,-7.48794651031494,-8.29105377197266,5.57112741470337,-4.42878341674805,21.88793945312500,-6.21646356582642,11.44144916534424
442,566887391,96.53332519531250,50.48682785034180,-7.67597246170044,-8.49656200408936,5.46285867691040,-4.53023719787598,23.17503547668457,-11.91870880126953,14.76869297027588
443,566895724,96.59860229492188,50.35731506347656,-7.86204147338867,-7.82924556732178,5.47155618667603,-5.17317390441895,23.73329925537109,-11.74099922180176,15.16284561157227
444,566904057,96.79881286621094,50.20652008056641,-7.93309926986694,-7.82518148422241,6.31311416625977,-4.77562379837036,24.83566093444824,-6.99931383132935,17.68172645568848
445,566912390,96.98323822021484,50.06332778930664,-7.96338605880737,-8.71989536285400,5.80211591720581,-4.88723611831665,19.06973266601562,-4.03284788131714,16.40195655822754
446,566920723,97.08220672607422,49.90834045410156,-8.08349418640137,-9.33750915527344,5.92517995834351,-4.62487173080444,21.59732437133789,-6.31115961074829,17.69573402404785
447,566929056,97.12625885009766,49.76111984252930,-8.23272514343262,-9.74999046325684,6.24995946884155,-3.75198316574097,17.65818214416504,-8.66431331634521,17.05983352661133
448,566937389,97.19492340087891,49.64638137817383,-8.38557338714600,-10.12948894500732,5.36907958984375,-3.79847598075867,16.27439689636230,-13.84418296813965,14.37028598785400
449,566945722,97.24205017089844,49.57287216186523,-8.60391902923584,-9.67733287811279,4.90308427810669,-4.27164793014526,19.70181655883789,-19.44253540039062,10.33773422241211
450,566954055,97.19963073730469,49.51710128784180,-8.88927173614502,-8.92640018463135,4.95284795761108,-4.19458293914795,19.64531326293945,-20.59446144104004,7.53509807586670
451,566962388,97.16259765625000,49.48278427124023,-9.18081951141357,-8.43070411682129,4.43415117263794,-4.84713888168335,20.84249687194824,-21.41724586486816,5.02672100067139
452,566970721,97.21883392333984,49.45751571655273,-9.44160175323486,-8.14785385131836,4.15749740600586,-4.96050071716309,24.59214782714844,-23.47507095336914,5.32561445236206
453,566979054,97.28332519531250,49.42967987060547,-9.73691844940186,-8.04578590393066,3.99229621887207,-4.58619356155396,28.61231613159180,-26.19252395629883,6.21438026428223
454,566987387,97.27578735351562,49.37870788574219,-10.10550022125244,-8.21009254455566,3.49837040901184,-3.83333110809326,31.35453987121582,-27.17086791992188,7.81814289093018
455,566995720,97.32830810546875,49.34975051879883,-10.45913410186768,-8.21596336364746,3.46926259994507,-3.76891136169434,37.18632888793945,-26.36282348632812,5.06056261062622
456,567004053,97.53578948974609,49.36265945434570,-10.69755363464355,-8.00995349884033,4.20000123977661,-3.65472936630249,40.51846313476562,-22.40951156616211,1.20556175708771
457,567012386,97.78153228759766,49.39020919799805,-10.89492321014404,-8.32936000823975,4.44040775299072,-3.87420296669006,41.39365005493164,-19.39906501770020,-0.66634267568588
458,567020719,97.92585754394531,49.41539001464844,-11.20522785186768,-8.78099155426025,3.86842060089111,-4.12844324111938,44.26758956909180,-23.81635856628418,-1.57426714897156
459,567029052,98.11837768554688,49.47402572631836,-11.54491329193115,-8.56935310363770,3.30560541152954,-4.11149120330811,47.99872589111328,-30.86563491821289,-2.44917583465576
460,567037385,98.23831939697266,49.53816223144531,-11.97688293457031,-7.82129955291748,2.75375103950500,-4.62062931060791,52.48638153076172,-33.81498718261719,-4.72119283676147
461,567045718,98.49346160888672,49.64303970336914,-12.32495880126953,-7.18950366973877,3.07610440254211,-4.65488195419312,56.28760147094727,-32.26756286621094,-7.33047580718994
462,567054051,98.69902038574219,49.72730636596680,-12.68611812591553,-7.19291496276855,3.71762728691101,-4.26394081115723,56.38415145874023,-28.63716125488281,-7.69686174392700
463,567062384,98.98591613769531,49.82895660400391,-13.01314926147461,-7.52737998962402,3.69732666015625,-4.22881937026978,58.20315170288086,-30.59700393676758,-6.78384160995483
464,567070717,99.19617462158203,49.91017532348633,-13.46335124969482,-7.19628190994263,4.26844930648804,-4.00162076950073,65.20680236816406,-35.32590103149414,-6.01131868362427
465,567079050,99.48322296142578,50.00302505493164,-13.86852073669434,-6.98590707778931,5.20043945312500,-3.53394269943237,65.47963714599609,-36.33360290527344,-4.40486383438110
466,567087383,99.62715148925781,50.06247329711914,-14.39508342742920,-7.32509899139404,5.11146497726440,-3.50055909156799,64.36666870117188,-40.61525344848633,-2.18345832824707
467,567095716,99.80793762207031,50.14781951904297,-14.94955444335938,-7.16204881668091,5.05507946014404,-3.59780764579773,66.64324951171875,-47.36095809936523,-1.40373241901398
468,567104049,99.88686370849609,50.21581268310547,-15.59078502655029,-6.65334224700928,5.46711683273315,-3.65118646621704,67.24182128906250,-49.34885025024414,-1.49530410766602
469,567112382,99.99412536621094,50.29379272460938,-16.17328453063965,-6.80472517013550,5.79650163650513,-3.33662509918213,60.59965133666992,-49.14369201660156,-0.07001688331366
470,567120715,99.92715454101562,50.34645843505859,-16.87430381774902,-7.13742065429688,5.38355493545532,-3.12906932830811,55.36658859252930,-53.40389633178711,1.18233358860016
471,567129048,99.83911895751953,50.40685272216797,-17.58815765380859,-6.97944307327271,5.29145479202271,-2.62192225456238,49.52339935302734,-58.47637939453125,3.58175945281982
472,567137381,99.58716583251953,50.43642044067383,-18.37206459045410,-6.74024295806885,4.60710525512695,-2.79016542434692,40.93573379516602,-59.08438873291016,4.73314857482910
473,567145714,99.38764190673828,50.48938369750977,-19.13873672485352,-6.58094406127930,3.82274341583252,-3.10433673858643,41.26749801635742,-62.09341430664062,4.70297574996948
474,567154047,99.09013366699219,50.51779937744141,-19.98166084289551,-6.18108606338501,3.77981686592102,-3.65981245040894,41.01366806030273,-63.45978164672852,5.08140230178833
475,567162380,98.90863800048828,50.56585311889648,-20.73180580139160,-6.01102542877197,3.56258130073547,-3.69851303100586,42.02127075195312,-60.66418457031250,4.64403629302979
476,567170713,98.66662597656250,50.56592941284180,-21.55750083923340,-6.40937900543213,3.84837388992310,-3.61647152900696,46.14395141601562,-61.61109924316406,7.72593450546265
477,567179046,98.48471832275391,50.56987762451172,-22.37369728088379,-6.60789108276367,4.13841915130615,-3.86273479461670,48.10748291015625,-64.85980987548828,10.26696300506592
478,567187379,98.17830657958984,50.52262115478516,-23.29141235351562,-6.46993637084961,4.77364683151245,-4.18572378158569,46.91788864135742,-67.83317565917969,13.87127017974854
479,567195712,97.91974639892578,50.46577072143555,-24.17367744445801,-6.42015218734741,4.97916603088379,-4.27771186828613,44.89744949340820,-69.05790710449219,17.66614532470703
480,567204045,97.52983856201172,50.36613464355469,-25.12985801696777,-7.01886796951294,4.91075611114502,-3.85189628601074,40.29668807983398,-70.26033782958984,19.79672241210938
481,567212378,97.20346069335938,50.30303573608398,-26.03227996826172,-7.06959915161133,4.40205430984497,-3.93391966819763,38.36925125122070,-70.96966552734375,17.83348083496094
482,567220711,96.84303283691406,50.20885467529297,-26.94329452514648,-7.89899969100952,4.68821001052856,-3.81370615959167,39.46046447753906,-67.40753936767578,17.88442230224609
483,567229044,96.55585479736328,50.11129379272461,-27.85976791381836,-9.60761070251465,4.07655429840088,-3.49394702911377,44.10221862792969,-72.02857971191406,21.43033981323242
484,567237377,96.12480163574219,49.99559783935547,-28.94480895996094,-10.29245090484619,3.43455767631531,-3.53114342689514,46.74633407592773,-80.97508239746094,21.15343284606934
485,567245710,95.82935333251953,49.93650817871094,-29.97720146179199,-10.24483776092529,2.90392541885376,-4.71777915954590,53.49364089965820,-81.88876342773438,17.43427467346191
486,567254043,95.53847503662109,49.83522415161133,-31.04135322570801,-10.55972290039062,3.72800087928772,-5.36399412155151,61.40534210205078,-80.09149932861328,18.36790657043457
487,567262376,95.36934661865234,49.77704620361328,-32.01808166503906,-10.79162883758545,3.59840297698975,-5.88806295394897,63.12388610839844,-78.13497161865234,16.82358169555664
488,567270709,95.18022155761719,49.68206787109375,-32.97968292236328,-10.45057582855225,5.00070285797119,-5.98507022857666,63.99712371826172,-72.64890289306641,16.33303070068359
489,567279042,95.11814117431641,49.57761764526367,-33.89062881469727,-11.95497226715088,4.96177339553833,-5.34536886215210,69.40673828125000,-73.10297393798828,22.00482940673828
490,567287375,94.95851898193359,49.50723266601562,-35.00699615478516,-11.02301979064941,3.53707027435303,-5.79929018020630,81.42650604248047,-85.27693939208984,14.17788505554199
491,567295708,95.10141754150391,49.47686767578125,-35.90180969238281,-10.00761413574219,5.18675231933594,-6.69926929473877,92.13982391357422,-72.99349212646484,13.52187061309814
492,567304041,95.29937744140625,49.37006759643555,-36.79173278808594,-11.32981109619141,6.06776905059814,-6.20754861831665,103.50781250000000,-67.44212341308594,17.18680000305176
493,567312374,95.49260711669922,49.34336471557617,-37.71146011352539,-11.59544849395752,5.19808769226074,-6.32787227630615,99.95516204833984,-75.29050445556641,14.06674003601074
494,567320707,95.70594024658203,49.27636718750000,-38.70388031005859,-10.69037246704102,5.70027494430542,-6.85857868194580,114.54349517822266,-75.91860198974609,13.70871257781982
495,567329040,95.98368835449219,49.17935180664062,-39.76984024047852,-12.11862373352051,5.94738197326660,-5.36728334426880,128.85095214843750,-81.33747863769531,18.21545600891113
496,567337373,96.35536193847656,49.22344970703125,-40.82975387573242,-11.10410594940186,4.51376962661743,-5.81729459762573,133.67306518554688,-87.24090576171875,8.39994144439697
497,567345706,96.79228210449219,49.28340911865234,-41.76810836791992,-11.13480663299561,5.32734155654907,-4.50507831573486,130.31916809082031,-77.97744750976562,6.37543582916260
498,567354039,97.14326477050781,49.43000793457031,-42.60805130004883,-9.46926116943359,4.07380294799805,-5.55165052413940,117.23333740234375,-66.73795318603516,-11.36548805236816
499,567362372,97.67763519287109,49.64316558837891,-43.29503631591797,-9.36922740936279,5.41144704818726,-4.75199174880981,119.36125946044922,-60.43652725219727,-12.95687198638916
500,567370705,98.11452484130859,49.86270141601562,-44.05427932739258,-9.71824264526367,4.15163660049438,-4.10209465026855,120.60145568847656,-61.36404418945312,-19.87211990356445
501,567379038,98.76245880126953,50.21127700805664,-44.73179626464844,-8.65871238708496,3.14724469184875,-4.53221225738525,132.60794067382812,-61.76624679565430,-27.93846130371094
502,567387371,99.44715118408203,50.54640579223633,-45.44545745849609,-8.10837650299072,3.45987629890442,-3.64622831344604,146.75935363769531,-59.73009490966797,-32.93342590332031
503,567395704,100.19650268554688,50.97972869873047,-46.15248870849609,-9.33613967895508,3.69502377510071,-1.58369100093842,148.25485229492188,-65.55693817138672,-35.97636032104492
504,567404037,100.76581573486328,51.41419982910156,-47.07192993164062,-10.03471088409424,2.46084380149841,-0.55101150274277,152.92658996582031,-76.91401672363281,-40.55572509765625
505,567412370,101.42988586425781,51.97678375244141,-47.97991561889648,-10.23840522766113,2.87318730354309,1.37586998939514,158.27459716796875,-82.47388458251953,-46.67674255371094
506,567420703,101.98667144775391,52.55291748046875,-48.98255538940430,-9.96910095214844,3.09442877769470,2.28073811531067,160.59155273437500,-85.58086395263672,-54.61705780029297
507,567429036,102.60383605957031,53.22777938842773,-49.93465805053711,-9.23188114166260,4.86340665817261,2.63254427909851,159.05789184570312,-86.81426239013672,-57.44022369384766
508,567437369,103.11009216308594,53.76004791259766,-51.09284973144531,-8.92545890808105,7.52109766006470,2.85280609130859,171.08660888671875,-94.27292633056641,-45.72900772094727
509,567445702,103.50775146484375,54.24193954467773,-52.17540740966797,-8.17068195343018,11.21516609191895,2.85027503967285,151.44827270507812,-87.05799865722656,-40.56166458129883
510,567454035,103.82665252685547,54.72983932495117,-53.14094161987305,-7.52248239517212,10.61232471466064,-0.06074580550194,127.53030395507812,-80.24490356445312,-34.11645889282227
511,567462368,104.28912353515625,55.14379882812500,-53.96618270874023,-5.89068603515625,12.29073333740234,1.08298552036285,132.27186584472656,-67.71335601806641,-28.68159294128418
512,567470701,104.73972320556641,55.44865036010742,-54.63186645507812,-7.51253747940063,12.51800346374512,1.91678583621979,118.36267089843750,-52.64690780639648,-25.87216758728027
513,567479034,105.07144927978516,55.71911621093750,-55.32126617431641,-8.80358123779297,12.66459465026855,1.96197760105133,106.68063354492188,-52.97885131835938,-21.19475936889648
514,567487367,105.39093780517578,56.02057266235352,-55.93592834472656,-9.80416870117188,12.14475917816162,2.13837456703186,95.96791076660156,-49.22715377807617,-19.76775360107422
515,567495700,105.65818786621094,56.33851623535156,-56.49872970581055,-9.60836505889893,10.81507110595703,1.41265165805817,85.50877380371094,-45.67843246459961,-23.65363311767578
516,567504033,105.93137359619141,56.64119338989258,-56.99393844604492,-9.24895286560059,9.91451454162598,1.52633869647980,80.95101165771484,-40.90718841552734,-27.87264442443848
517,567512366,106.25341796875000,56.97504806518555,-57.35990905761719,-8.50812911987305,8.85673713684082,1.63786184787750,74.00974273681641,-33.65268707275391,-33.68885803222656
518,567520699,106.59120941162109,57.36999130249023,-57.63586044311523,-8.75987720489502,7.21360349655151,0.96405500173569,66.30045318603516,-29.32425689697266,-38.21349334716797
519,567529032,106.94741821289062,57.76967239379883,-57.93941497802734,-8.34054183959961,6.03239393234253,0.31362682580948,71.86147308349609,-30.86432456970215,-38.72236251831055
520,567537365,107.35979461669922,58.12090301513672,-58.31343841552734,-8.48480701446533,5.37292814254761,0.66718113422394,86.13959503173828,-34.64085006713867,-35.10059738159180
521,567545698,107.75922393798828,58.46952819824219,-58.70043563842773,-9.01308917999268,5.13313579559326,1.29179549217224,86.05664062500000,-35.34020614624023,-34.38012313842773
522,567554031,108.17427825927734,58.84346008300781,-59.11099243164062,-8.67704772949219,4.21963691711426,1.17985141277313,90.51907348632812,-36.19388198852539,-33.51632308959961
523,567562364,108.67665100097656,59.20878601074219,-59.43921661376953,-8.28609848022461,4.49900531768799,0.71740150451660,92.95744323730469,-30.67247772216797,-34.03363418579102
524,567570697,109.19081878662109,59.53959274291992,-59.73947143554688,-8.17309093475342,4.38779783248901,0.70279568433762,91.31777191162109,-29.69260597229004,-33.44591903686523
525,567579030,109.76369476318359,59.86287307739258,-59.98464965820312,-7.46606874465942,4.53006792068481,0.25373935699463,92.76374816894531,-26.37751388549805,-33.47725296020508
526,567587363,110.36470794677734,60.19184875488281,-60.24614334106445,-7.50942897796631,4.50727128982544,0.25749123096466,98.39981079101562,-25.48806953430176,-30.75381469726562
527,567595696,111.06433105468750,60.49839401245117,-60.41841888427734,-7.10393238067627,4.96421051025391,0.00447718054056,101.16538238525391,-19.60800933837891,-30.07931327819824
528,567604029,111.79088592529297,60.76153945922852,-60.57332992553711,-7.54618930816650,5.06936311721802,0.18207047879696,102.00509643554688,-19.47176933288574,-27.90836334228516
529,567612362,112.56972503662109,61.01287841796875,-60.67615509033203,-6.94918203353882,5.16036844253540,-0.23797217011452,102.85873413085938,-16.39439392089844,-27.51067733764648
530,567620695,113.35765838623047,61.27021789550781,-60.75960922241211,-6.79443502426147,5.15932369232178,-0.20163780450821,102.69930267333984,-13.29695606231689,-26.25650596618652
531,567629028,114.14041900634766,61.50509643554688,-60.79539871215820,-6.46510791778564,5.01846694946289,-0.54533576965332,97.24639129638672,-9.94992733001709,-25.06320381164551
532,567637361,114.96280670166016,61.69158935546875,-60.78067398071289,-6.40046119689941,4.90637588500977,-0.54467409849167,95.74394226074219,-7.98147678375244,-22.54992866516113
533,567645694,115.86161804199219,61.86317443847656,-60.63144683837891,-5.99590253829956,5.13102054595947,-0.69419282674789,90.69429016113281,-0.63332968950272,-24.07911872863770
534,567654027,116.68904113769531,62.01712036132812,-60.51243209838867,-6.64617633819580,5.40927267074585,-0.44615769386292,86.32450866699219,1.19888257980347,-20.09841156005859
535,567662360,117.47106170654297,62.16336822509766,-60.41765594482422,-6.58053112030029,5.59352350234985,-0.07653233408928,83.56570434570312,0.11887644231319,-19.05413055419922
536,567670693,118.29650115966797,62.26141738891602,-60.23027038574219,-6.38283777236938,6.27505350112915,-0.11897529661655,77.77436828613281,4.31745719909668,-17.14207649230957
537,567679026,119.03684997558594,62.35889053344727,-60.09392547607422,-6.96683740615845,6.28478431701660,0.39907383918762,72.97503662109375,1.61170685291290,-15.75194835662842
538,567687359,119.64473724365234,62.48593902587891,-60.03979492187500,-6.50339269638062,6.19008874893188,-0.11147896945477,67.16635894775391,-1.36512911319733,-16.34936523437500
539,567695692,120.17612457275391,62.60641098022461,-60.06220626831055,-6.55037736892700,5.91463661193848,0.05312160775065,66.39298248291016,-4.65611076354980,-14.04079437255859
540,567704025,120.67294311523438,62.73047256469727,-60.10519409179688,-6.41558742523193,5.24099683761597,-0.06338155269623,62.81512451171875,-9.02670764923096,-13.47427845001221
541,567712358,121.09373474121094,62.85161972045898,-60.24490737915039,-6.34935903549194,4.58338737487793,-0.30670970678329,64.01850128173828,-13.48882865905762,-10.38557624816895
542,567720691,121.38275146484375,62.97050476074219,-60.55626678466797,-6.61436939239502,4.23999023437500,-0.19151207804680,68.38659667968750,-18.20958518981934,-6.00375938415527
543,567729024,121.63807678222656,63.08015823364258,-60.94907760620117,-6.74814510345459,3.83289957046509,-0.24212151765823,73.21192932128906,-21.29090499877930,-2.93039870262146
544,567737357,121.95115661621094,63.16433334350586,-61.32938385009766,-6.81030464172363,3.69717764854431,-0.51168727874756,76.89348602294922,-22.30051994323730,0.44972452521324
545,567745690,122.28594970703125,63.22471237182617,-61.72335433959961,-7.10592555999756,3.44956612586975,-0.46522220969200,80.99354553222656,-21.35676956176758,3.36466860771179
546,567754023,122.49739837646484,63.27722167968750,-62.26974868774414,-7.74474859237671,4.09469413757324,-0.51360619068146,84.56739044189453,-24.43149757385254,7.38924551010132
547,567762356,122.68145751953125,63.33083343505859,-62.86505508422852,-7.85261058807373,3.65111732482910,-0.64224761724472,86.60896301269531,-26.56286048889160,8.66394996643066
548,567770689,122.97611999511719,63.38776779174805,-63.34078979492188,-7.37992429733276,4.23876810073853,-1.61558532714844,85.00545501708984,-24.65580749511719,6.30076169967651
549,567779022,123.23551940917969,63.41587066650391,-63.87185287475586,-7.74881601333618,4.54878950119019,-1.16568732261658,86.72624206542969,-25.18777656555176,10.92460250854492
550,567787355,123.38632965087891,63.47693634033203,-64.52328491210938,-7.67599630355835,3.92075681686401,-1.16801583766937,88.76389312744141,-29.33491897583008,9.66486358642578
551,567795688,123.50423431396484,63.53274536132812,-65.21456909179688,-7.35287618637085,4.52753448486328,-2.03336739540100,89.17175292968750,-30.69430732727051,11.24853134155273
552,567804021,123.79073333740234,63.57609939575195,-65.75464630126953,-7.53859758377075,3.57745766639709,-2.48603439331055,91.02612304687500,-26.34766387939453,9.82902717590332
553,567812354,123.98524475097656,63.59483337402344,-66.42269897460938,-8.16813564300537,4.53123378753662,-2.50460624694824,93.76133728027344,-30.30294036865234,16.18731498718262
554,567820687,124.09608459472656,63.61931228637695,-67.22083282470703,-8.49462223052979,3.23139929771423,-2.76088786125183,99.83330535888672,-33.30041503906250,17.59667015075684
555,567829020,124.15431976318359,63.64765167236328,-68.12336730957031,-8.63134956359863,4.06292057037354,-3.44974684715271,104.68630981445312,-38.31552505493164,20.31480407714844
556,567837353,124.27838134765625,63.64977645874023,-69.00967407226562,-8.79665946960449,3.60218906402588,-2.28727269172668,108.81836700439453,-38.61825180053711,24.51033210754395
557,567845686,124.41044616699219,63.65418243408203,-69.91683959960938,-9.11552715301514,3.89222073554993,-2.05128312110901,112.02349090576172,-39.63223266601562,24.99136543273926
558,567854019,124.44647216796875,63.66187667846680,-70.89540100097656,-9.14074897766113,4.32462644577026,-1.93685102462769,110.13595581054688,-40.38881301879883,24.72870445251465
559,567862352,124.50856018066406,63.67879867553711,-71.83456420898438,-9.42042160034180,4.30946445465088,-2.11455488204956,109.00966644287109,-39.29226684570312,22.61331748962402
560,567870685,124.66253662109375,63.71933364868164,-72.70114135742188,-9.51927947998047,4.49561786651611,-2.52846884727478,110.32876586914062,-40.13279724121094,20.32376861572266
561,567879018,124.77862548828125,63.78413391113281,-73.58008575439453,-9.40306568145752,4.59940958023071,-2.91175842285156,109.06061553955078,-39.82976150512695,16.06157684326172
562,567887351,125.01487731933594,63.87381362915039,-74.35176849365234,-9.21213245391846,4.53501510620117,-2.84899306297302,110.08892822265625,-39.09041595458984,12.71567344665527
563,567895684,125.22866821289062,63.98675537109375,-75.13810729980469,-9.05478477478027,4.20059633255005,-2.93831920623779,110.89371490478516,-38.99383163452148,8.51253318786621
564,567904017,125.51477050781250,64.12933349609375,-75.89982604980469,-8.74370861053467,4.00714826583862,-3.04602670669556,115.16465759277344,-41.94378280639648,7.37720394134521
565,567912350,125.73277282714844,64.26345062255859,-76.76890563964844,-8.34546947479248,3.94239711761475,-3.01223182678223,120.45178222656250,-43.79923248291016,9.01035976409912
566,567920683,126.04154205322266,64.41641235351562,-77.58226776123047,-8.12227725982666,3.57823896408081,-3.27103447914124,123.66109466552734,-44.43439483642578,8.08377075195312
567,567929016,126.26025390625000,64.54617309570312,-78.49760437011719,-8.11443710327148,4.19145202636719,-3.36104846000671,125.66580963134766,-45.22676086425781,10.90463924407959
568,567937349,126.52352905273438,64.69075775146484,-79.38816070556641,-7.96738386154175,4.18475770950317,-3.41089010238647,126.77755737304688,-46.59869766235352,11.39360046386719
569,567945682,126.67900085449219,64.81902313232422,-80.39318084716797,-7.94660282135010,4.97356939315796,-3.13373470306396,127.95001983642578,-48.66259002685547,13.70837593078613
570,567954015,126.83676147460938,64.97409820556641,-81.42931365966797,-7.85360956192017,4.59173870086670,-2.95635914802551,130.15917968750000,-52.82789230346680,14.83784294128418
571,567962348,126.88435363769531,65.11916351318359,-82.59827423095703,-7.72142839431763,4.32341051101685,-3.19971513748169,133.07447814941406,-56.29180145263672,16.70063972473145
572,567970681,126.96812438964844,65.26702117919922,-83.76683044433594,-7.70518875122070,3.78447055816650,-3.57635211944580,135.97779846191406,-57.12276458740234,19.34312057495117
573,567979014,127.00804901123047,65.38498687744141,-84.99343872070312,-7.88095998764038,3.28760123252869,-4.12673950195312,138.64300537109375,-56.48262023925781,20.64239120483398
574,567987347,127.12475585937500,65.49512481689453,-86.17906951904297,-8.19184494018555,3.38381028175354,-4.25581216812134,142.04347229003906,-54.58101272583008,23.27568054199219
575,567995680,127.22982788085938,65.56461334228516,-87.40784454345703,-8.50195312500000,3.08441233634949,-4.34079456329346,146.73300170898438,-53.09075927734375,25.24996757507324
576,568004013,127.35607910156250,65.61511230468750,-88.67613220214844,-8.97711372375488,3.62724757194519,-3.95934939384460,152.37539672851562,-53.13574981689453,31.46635437011719
577,568012346,127.44144439697266,65.62741088867188,-90.01180267333984,-9.09954547882080,3.19239854812622,-4.37991476058960,155.97038269042969,-53.29166030883789,34.05971527099609
578,568020679,127.54834747314453,65.63818359375000,-91.38787078857422,-9.25629520416260,4.15502357482910,-4.23318386077881,161.88739013671875,-54.26941680908203,38.62431335449219
579,568029012,127.57759094238281,65.61772918701172,-92.84852600097656,-9.32120037078857,4.35195446014404,-4.27956914901733,162.75204467773438,-56.13095474243164,41.14665985107422
580,568037345,127.55463409423828,65.60735321044922,-94.41168212890625,-9.44858646392822,5.45210313796997,-3.78974175453186,166.72282409667969,-60.05945205688477,46.38560485839844
581,568045678,127.45442199707031,65.58673858642578,-96.04838562011719,-9.27377700805664,5.18425798416138,-3.99430799484253,166.33311462402344,-63.55317687988281,46.34309005737305
582,568054011,127.32293701171875,65.60543060302734,-97.72349548339844,-9.09830379486084,5.56827354431152,-4.23638963699341,165.91717529296875,-66.77487945556641,46.82782363891602
583,568062344,127.18839263916016,65.60622406005859,-99.36811065673828,-8.67721652984619,4.93795585632324,-5.15226078033447,163.03395080566406,-66.03917694091797,44.05058670043945
584,568070677,127.08553314208984,65.65538024902344,-101.01909637451172,-8.41860198974609,5.46602201461792,-5.25385284423828,166.77198791503906,-68.15389251708984,42.83054733276367
585,568079010,126.94846343994141,65.68540191650391,-102.69771575927734,-8.08929347991943,5.31200981140137,-5.18584060668945,166.40733337402344,-70.18017578125000,41.70113754272461
586,568087343,126.79583740234375,65.76056671142578,-104.39930725097656,-7.63174772262573,5.02104949951172,-4.89333105087280,166.46643066406250,-71.99320220947266,41.33887481689453
587,568095676,126.65740203857422,65.78565979003906,-106.05265045166016,-7.32809782028198,4.44583177566528,-5.04078006744385,163.49064636230469,-69.44234466552734,40.71306991577148
588,568104009,126.57832336425781,65.83107757568359,-107.65333557128906,-7.40601491928101,3.63800311088562,-5.41681146621704,164.37054443359375,-65.84800720214844,40.75269317626953
589,568112342,126.51935577392578,65.82101440429688,-109.26388549804688,-7.66469192504883,3.57772707939148,-6.14600944519043,168.22628784179688,-65.93053436279297,42.57536697387695
590,568120675,126.45783996582031,65.84081268310547,-110.92475891113281,-8.00222396850586,3.85904669761658,-6.39228725433350,173.09461975097656,-66.43782806396484,44.78639984130859
591,568129008,126.41397857666016,65.76637268066406,-112.60254669189453,-8.22362422943115,4.22859287261963,-6.11433315277100,177.07330322265625,-64.97794342041016,50.83550262451172
592,568137341,126.31511688232422,65.73978424072266,-114.38742065429688,-8.59190750122070,4.83776092529297,-5.67275714874268,182.07527160644531,-68.35565948486328,52.89133071899414
593,568145674,126.20626831054688,65.62277221679688,-116.18904876708984,-9.23661422729492,5.53196287155151,-5.05384588241577,182.40827941894531,-68.08726501464844,58.72824096679688
594,568154007,126.03025817871094,65.54853057861328,-118.08398437500000,-9.52848434448242,5.69178199768066,-4.69154644012451,184.59353637695312,-70.08776092529297,60.77283859252930
595,568162340,125.85746765136719,65.42785644531250,-119.98542785644531,-9.75168132781982,6.69423294067383,-4.55143451690674,185.18464660644531,-73.20294189453125,62.06015777587891
596,568170673,125.61573028564453,65.37625122070312,-121.89527130126953,-10.02552890777588,6.27348279953003,-4.01509523391724,178.02935791015625,-73.23189544677734,58.91252517700195
597,568179006,125.43431091308594,65.31969451904297,-123.71356201171875,-9.96511745452881,6.06846237182617,-4.50033378601074,174.78150939941406,-75.50650787353516,53.11283111572266
598,568187339,125.23017120361328,65.35662841796875,-125.52986145019531,-10.11954021453857,6.26069974899292,-4.84739828109741,172.23760986328125,-76.16797637939453,47.14817428588867
599,568195672,125.06811523437500,65.42347717285156,-127.27940368652344,-10.22940635681152,5.63299322128296,-5.95095348358154,169.55062866210938,-81.84577178955078,38.48167037963867
600,568204005,124.77314758300781,65.57502746582031,-129.18254089355469,-10.53239822387695,5.76863431930542,-6.09663009643555,171.07450866699219,-87.47463226318359,37.47145843505859
601,568212338,124.58829498291016,65.73006439208984,-130.90260314941406,-10.77549934387207,5.96979331970215,-6.06436347961426,163.80795288085938,-86.88740539550781,27.96614265441895
602,568220671,124.27978515625000,66.01144409179688,-132.72990417480469,-11.17087268829346,5.70221138000488,-6.25526666641235,161.75355529785156,-92.43171691894531,21.00251388549805
603,568229004,123.99951934814453,66.28170776367188,-134.54046630859375,-11.28204727172852,5.39079189300537,-6.24210739135742,162.85554504394531,-97.81608581542969,17.47560119628906
604,568237337,123.58783721923828,66.65334320068359,-136.48161315917969,-11.72080898284912,4.76359796524048,-6.00403594970703,162.81904602050781,-101.49681854248047,12.83016490936279
605,568245670,123.29671478271484,67.04100036621094,-138.28746032714844,-11.64490985870361,4.46951866149902,-6.02892827987671,161.89956665039062,-104.15953826904297,3.48307347297668
606,568254003,122.95909881591797,67.52764129638672,-140.08871459960938,-11.68194198608398,4.44585609436035,-6.09212875366211,157.54180908203125,-101.21537780761719,-5.12400436401367
607,568262336,122.61480712890625,68.09084320068359,-141.86965942382812,-12.17603969573975,4.71125316619873,-6.75287008285522,155.22998046875000,-103.86225891113281,-14.93556118011475
608,568270669,122.33442687988281,68.64988708496094,-143.58154296875000,-13.15019798278809,5.14943456649780,-7.30594253540039,154.72358703613281,-107.88430786132812,-19.94876861572266
609,568279002,121.83969116210938,69.30538940429688,-145.54563903808594,-14.39002513885498,4.70915889739990,-8.15461635589600,157.94332885742188,-122.01531982421875,-25.53814888000488
610,568287335,120.78244018554688,70.09777069091797,-148.15240478515625,-15.48104190826416,4.50926065444946,-8.31292915344238,165.19081115722656,-141.51480102539062,-26.67777442932129
611,568295668,119.15302276611328,70.96462249755859,-151.42059326171875,-16.32269096374512,3.12053084373474,-8.68581867218018,172.91275024414062,-164.57575988769531,-26.63285446166992
612,568304001,117.22201538085938,71.81884002685547,-155.17990112304688,-15.88233089447021,2.38625717163086,-10.08109188079834,192.99374389648438,-184.71391296386719,-25.21699905395508
613,568312334,114.71044921875000,72.58975982666016,-159.66201782226562,-16.06599617004395,4.24607324600220,-9.55405616760254,207.68879699707031,-198.69299316406250,-13.25378513336182
614,568320667,110.62049102783203,73.26459503173828,-165.75395202636719,-17.80266571044922,4.96088361740112,-8.70032501220703,206.75338745117188,-228.53178405761719,6.19283580780029
615,568329000,104.65016174316406,73.79562377929688,-173.59017944335938,-16.22490119934082,5.19635152816772,-8.54991531372070,184.09671020507812,-272.56628417968750,18.27832412719727
616,568337333,97.37796783447266,74.02999877929688,177.18348693847656,-13.84449195861816,4.47736883163452,-9.11317825317383,188.06420898437500,-317.63522338867188,30.19572448730469
617,568345666,90.53327178955078,74.09882354736328,168.18855285644531,-9.44676589965820,2.39647269248962,-10.18116283416748,213.30439758300781,-308.49130249023438,11.73204517364502
618,568353999,84.28592681884766,74.09754180908203,159.88780212402344,-4.07405900955200,1.18242025375366,-10.56894207000732,207.07772827148438,-271.82971191406250,-14.03374195098877
619,568362332,80.20687103271484,74.15034484863281,153.55706787109375,-0.05332548171282,1.09872746467590,-9.03166198730469,239.94824218750000,-204.37719726562500,-36.14643096923828
620,568370665,77.11305236816406,74.27055358886719,148.15100097656250,0.13191665709019,-0.11013603955507,-11.01475429534912,249.76763916015625,-184.14834594726562,-47.72526168823242
621,568378998,74.66742706298828,74.35826110839844,143.22991943359375,1.08131074905396,0.97893428802490,-9.88305854797363,271.78588867187500,-167.62319946289062,-47.50749588012695
622,568387331,72.05732727050781,74.28134155273438,138.05195617675781,1.06041002273560,2.93391799926758,-6.75025892257690,283.74267578125000,-162.88259887695312,-41.10735702514648
623,568395664,69.72474670410156,74.17232513427734,133.10140991210938,1.63971817493439,2.78702425956726,-6.55741548538208,290.49072265625000,-156.22399902343750,-42.36108016967773
624,568403997,68.24234771728516,74.14414215087891,128.90827941894531,2.58943581581116,2.45173430442810,-6.22501325607300,303.32913208007812,-145.43261718750000,-42.80710983276367
625,568412330,67.22162628173828,74.10636138916016,125.12536621093750,3.86666035652161,2.76661348342896,-5.23572683334351,311.31774902343750,-133.16145324707031,-39.45467376708984
626,568420663,66.34040832519531,73.95372009277344,121.46053314208984,4.84543323516846,2.47326111793518,-3.73985052108765,315.78280639648438,-117.77536010742188,-32.75407791137695
627,568428996,65.80268859863281,73.78704071044922,118.15843200683594,4.25479364395142,1.91939234733582,-2.91510701179504,314.83300781250000,-108.10871124267578,-28.23471069335938
628,568437329,65.84799194335938,73.74080657958984,115.43623352050781,3.39966368675232,1.05114972591400,-3.16737365722656,316.63195800781250,-101.62121582031250,-27.37512016296387
629,568445662,66.00496673583984,73.75611877441406,112.84066009521484,3.03952646255493,1.27727138996124,-3.37294816970825,315.47109985351562,-94.60617828369141,-32.10541152954102
630,568453995,65.84630584716797,73.68892669677734,109.94383239746094,2.98204803466797,0.83667403459549,-3.64342594146729,313.37878417968750,-91.60299682617188,-34.26330947875977
631,568462328,65.72470855712891,73.60504913330078,107.05384063720703,1.24180829524994,0.19251140952110,-3.42149829864502,316.89370727539062,-92.54827117919922,-32.73874282836914
632,568470661,65.93938446044922,73.59144592285156,104.46894836425781,-0.00957541912794,-0.74729526042938,-3.32303619384766,321.39157104492188,-95.42212677001953,-27.53602600097656
633,568478994,66.21778106689453,73.47737884521484,101.88430786132812,-1.47198164463043,-1.35442733764648,-3.95790219306946,329.01138305664062,-100.54433441162109,-15.75245475769043
634,568487327,66.45947265625000,73.10027313232422,99.16666412353516,-2.48258852958679,-0.09855205565691,-3.62689423561096,340.09500122070312,-103.39593505859375,1.91911685466766
635,568495660,66.92928314208984,72.56172943115234,96.62126159667969,-4.42074632644653,2.21849727630615,-2.04572892189026,346.94097900390625,-107.73667144775391,21.80087089538574
636,568503993,67.63996887207031,71.93537139892578,94.24983215332031,-7.43821144104004,4.26125192642212,0.02511315047741,354.85931396484375,-122.46949005126953,45.39979934692383
637,568512326,68.02962493896484,70.99482727050781,91.40399932861328,-10.87747192382812,6.60507535934448,2.88994359970093,369.10116577148438,-155.86494445800781,73.30884552001953
638,568520659,67.84206390380859,69.73597717285156,87.94461822509766,-12.06814956665039,8.31492137908936,4.31773376464844,367.24926757812500,-185.34228515625000,85.67053222656250
639,568528992,67.45240783691406,68.46930694580078,84.45705413818359,-11.14796924591064,8.34322166442871,2.73071837425232,342.96765136718750,-195.20155334472656,81.88397979736328
640,568537325,67.07900238037109,67.39076995849609,81.23936462402344,-9.12314224243164,9.84391880035400,1.32956016063690,312.08526611328125,-193.96403503417969,73.86534881591797
641,568545658,66.50894165039062,66.29014587402344,78.06094360351562,-8.88875198364258,10.69762229919434,1.66954517364502,281.35583496093750,-199.14779663085938,72.02548980712891
642,568553991,65.83336639404297,65.10519409179688,75.01807403564453,-8.83865833282471,10.22604846954346,1.90684127807617,250.49333190917969,-194.22479248046875,67.43540191650391
643,568562324,65.18062591552734,63.94461441040039,72.20022583007812,-9.29632854461670,9.87131500244141,1.64161753654480,225.69232177734375,-189.41886901855469,64.52426910400391
644,568570657,64.52062225341797,62.92992782592773,69.61708068847656,-9.07178688049316,9.04631423950195,0.35991415381432,197.47496032714844,-184.92990112304688,60.50781250000000
645,568578990,63.93913650512695,62.00476455688477,67.31965637207031,-8.35896587371826,8.32499408721924,-0.08334171772003,173.93420410156250,-170.35711669921875,52.80971145629883
646,568587323,63.47786712646484,61.00983810424805,65.28504180908203,-9.06180286407471,7.02208900451660,-0.96024471521378,158.00141906738281,-156.62223815917969,53.54618072509766
647,568595656,63.12214279174805,59.96088409423828,63.39972305297852,-10.32131671905518,6.64470767974854,-0.78730237483978,152.95127868652344,-155.45671081542969,60.47918701171875
648,568603989,62.94549560546875,58.96266174316406,61.67331695556641,-11.58685398101807,8.20021533966064,0.66489553451538,156.58015441894531,-154.96131896972656,66.93715667724609
649,568612322,62.69157409667969,57.97929000854492,60.08530426025391,-12.11545562744141,10.81513977050781,1.66028046607971,131.08331298828125,-149.42274475097656,67.00177764892578
650,568620655,62.07175445556641,56.93130493164062,58.43794631958008,-11.24886512756348,11.38844776153564,2.17294621467590,91.04063415527344,-151.83746337890625,60.23052978515625
651,568628988,61.42108535766602,55.96796417236328,56.88942337036133,-9.30846023559570,10.88690280914307,2.73026657104492,75.54695892333984,-144.50889587402344,51.31788635253906
652,568637321,60.90353393554688,55.16349411010742,55.51567459106445,-9.61378383636475,10.93380832672119,4.27345514297485,72.96453094482422,-134.70111083984375,46.48273849487305
653,568645654,60.29819488525391,54.39093017578125,54.16448974609375,-9.87288570404053,9.65241909027100,5.42511987686157,58.68924713134766,-133.07128906250000,40.79273986816406
654,568653987,59.73370742797852,53.66150665283203,52.97508239746094,-8.65655231475830,8.52774143218994,4.02337360382080,46.54796600341797,-115.67189025878906,32.02215194702148
655,568662320,59.16706848144531,52.96525192260742,51.86103439331055,-8.55616283416748,7.79494810104370,1.96066188812256,37.97613143920898,-110.56526947021484,29.46305656433105
656,568670653,58.71182250976562,52.31436538696289,50.80645751953125,-8.94576454162598,7.73817873001099,3.13760232925415,45.03990554809570,-111.59016418457031,32.65594482421875
657,568678986,58.23810195922852,51.64931106567383,49.80318069458008,-9.69128990173340,7.54264211654663,3.81001663208008,36.91114425659180,-110.32946014404297,34.17958068847656
658,568687319,57.78442001342773,50.87752151489258,48.81334304809570,-9.96939086914062,6.48986339569092,4.17116594314575,36.99107360839844,-111.40625000000000,37.28707122802734
659,568695652,57.45721054077148,50.14852905273438,47.87875366210938,-9.50293827056885,6.56419515609741,5.46985340118408,46.31673049926758,-112.24076843261719,40.44232177734375
660,568703985,57.14091110229492,49.35983276367188,46.97648620605469,-9.22792720794678,7.34925985336304,6.55823707580566,43.47230148315430,-109.29595184326172,39.96261978149414
661,568712318,56.71940994262695,48.75822448730469,46.15421676635742,-8.41830158233643,6.87108564376831,5.56259632110596,23.26952934265137,-98.26201629638672,29.80160522460938
662,568720651,56.33672714233398,48.27273941040039,45.46128845214844,-6.13920164108276,4.80320882797241,1.51325082778931,15.15451812744141,-77.37564849853516,16.32701492309570
663,568728984,56.20342636108398,47.91879272460938,44.90508651733398,-6.90042877197266,4.90579938888550,2.45074748992920,33.06396102905273,-65.14668273925781,14.94636154174805
664,568737317,56.14005279541016,47.55271911621094,44.41140747070312,-7.67898178100586,4.80701684951782,2.82604527473450,35.02693939208984,-56.84642410278320,12.42400360107422
665,568745650,56.07804870605469,47.26758193969727,43.95508956909180,-8.56620979309082,4.15668964385986,2.55878543853760,32.28630828857422,-54.26779556274414,12.07194328308105
666,568753983,56.07210922241211,46.90351867675781,43.49520492553711,-8.94285774230957,4.23449325561523,3.17557191848755,38.49341964721680,-54.85569000244141,13.39031791687012
667,568762316,56.10266494750977,46.60893249511719,43.05260848999023,-8.74063873291016,5.00102710723877,3.87152028083801,41.88526535034180,-54.38318252563477,13.56530666351318
668,568770649,56.19173431396484,46.24029159545898,42.62682342529297,-8.69160461425781,6.59909439086914,5.04712867736816,46.49844741821289,-53.18093490600586,15.22972869873047
669,568778982,56.25638961791992,45.92378997802734,42.21924209594727,-8.99796676635742,7.73585271835327,5.95320129394531,42.65631484985352,-53.58866500854492,17.24905967712402
670,568787315,56.26136016845703,45.52165985107422,41.79227447509766,-9.35486984252930,7.79039478302002,6.12651872634888,36.07641601562500,-55.83400344848633,18.37334632873535
671,568795648,56.20267486572266,45.13877487182617,41.30537414550781,-8.85966682434082,7.17770147323608,5.57171106338501,34.32437515258789,-63.62153244018555,19.72467231750488
672,568803981,56.12992858886719,44.72104644775391,40.84131240844727,-7.49930191040039,5.27388429641724,4.12142181396484,29.39513969421387,-59.94504165649414,17.80027389526367
673,568812314,56.06054687500000,44.36547088623047,40.37117385864258,-6.83559465408325,4.86493444442749,4.05233812332153,31.20500755310059,-60.89983367919922,17.26821708679199
674,568820647,56.03541946411133,43.95357131958008,39.90486526489258,-6.51255607604980,4.65613842010498,4.42831611633301,34.76749801635742,-60.18764877319336,16.69411468505859
675,568828980,56.03225708007812,43.61087417602539,39.48067855834961,-6.80628442764282,4.70126819610596,4.02275323867798,34.98477554321289,-56.96978378295898,17.82221603393555
