sep=,
DeviceTag:,Xsens DOT
FirmwareVersion:,2.1.0
AppVersion:,2022.0.0
StartTime: ,2022-08-15_19:19:40_000 EDT
© Xsens Technologies B. V. 2005-2022

PacketCounter,SampleTimeFine,Euler_X,Euler_Y,Euler_Z,Acc_X,Acc_Y,Acc_Z,Gyr_X,Gyr_Y,Gyr_Z
0,695803508,163.68307495117188,72.21703338623047,-94.59287261962891,0.00000000000000,0.00000000000000,0.00000000000000,0.00000000000000,0.00000000000000,0.00000000000000
1,695811841,163.93215942382812,72.10037994384766,-94.42938995361328,-9.12954616546631,2.31625890731812,-2.55649375915527,10.28534793853760,15.40881347656250,-3.54643321037292
2,695820174,164.07260131835938,72.06790924072266,-94.62233734130859,-9.28941822052002,1.69074046611786,-2.87308621406555,8.82633495330811,13.94949245452881,-2.06047391891479
3,695828507,164.23077392578125,71.97373199462891,-94.54637145996094,-9.03559494018555,1.82809913158417,-3.01487255096436,9.37207126617432,11.93787574768066,-1.30039656162262
4,695836840,164.15606689453125,71.94773101806641,-94.99449920654297,-8.83415985107422,1.64924561977386,-3.11534261703491,8.41571235656738,12.72305488586426,0.42642587423325
5,695845173,164.21722412109375,71.86159515380859,-95.02519989013672,-8.62554264068604,1.67152452468872,-2.78584384918213,9.89070796966553,9.93133163452148,2.23440670967102
6,695853506,164.11692810058594,71.79402923583984,-95.45663452148438,-8.51273918151855,1.74101173877716,-2.68711256980896,8.08185577392578,10.89573383331299,2.83846759796143
7,695861839,164.12049865722656,71.70037078857422,-95.54766845703125,-8.47011661529541,2.07294774055481,-2.44921994209290,9.84726715087891,10.17902374267578,4.68072080612183
8,695870172,163.91856384277344,71.65158081054688,-96.09288787841797,-8.56999874114990,2.38311123847961,-2.32192230224609,7.80027770996094,10.30985832214355,6.72752809524536
9,695878505,163.81323242187500,71.56111145019531,-96.28059387207031,-8.76157093048096,2.52867913246155,-2.49499106407166,7.77184629440308,8.76324462890625,8.15885162353516
10,695886838,163.26925659179688,71.52552795410156,-97.11408996582031,-9.00528717041016,3.06725573539734,-2.20255136489868,7.65563488006592,6.35327959060669,11.86910057067871
11,695895171,162.99674987792969,71.45368194580078,-97.45138549804688,-9.60633468627930,2.78148531913757,-2.35930752754211,4.71960210800171,4.84093666076660,13.11441135406494
12,695903504,162.19110107421875,71.44475555419922,-98.51721191406250,-9.73034763336182,2.83344984054565,-2.46572566032410,4.06823301315308,1.90662145614624,13.49040603637695
13,695911837,161.86137390136719,71.38836669921875,-98.88195800781250,-9.63917827606201,2.83474659919739,-2.56552910804749,0.95395117998123,2.44995093345642,13.66837310791016
14,695920170,160.97598266601562,71.39994049072266,-99.97507476806641,-9.80435085296631,2.68225359916687,-2.35428476333618,0.49181899428368,-0.10713155567646,13.78312492370605
15,695928503,160.61817932128906,71.38574981689453,-100.35445404052734,-9.89630699157715,2.45681095123291,-2.31677913665771,-0.76295858621597,-2.84506320953369,12.59006500244141
16,695936836,159.74778747558594,71.44123077392578,-101.40576934814453,-9.89882946014404,2.08087348937988,-2.39605164527893,-0.90493828058243,-5.53371286392212,11.14406394958496
17,695945169,159.43800354003906,71.46076965332031,-101.74757385253906,-9.81893253326416,1.77606153488159,-2.66623258590698,0.72977524995804,-6.42344808578491,9.71824550628662
18,695953502,158.72668457031250,71.55285644531250,-102.62448120117188,-10.06726264953613,1.59746956825256,-2.46788525581360,0.22263894975185,-6.95794105529785,8.33097934722900
19,695961835,158.15284729003906,71.60932159423828,-103.17809295654297,-10.28755855560303,1.37158870697021,-2.35887312889099,-3.00727796554565,-7.06495714187622,5.76228141784668
20,695970168,157.91043090820312,71.65474700927734,-103.42386627197266,-10.30597400665283,1.81832480430603,-1.70910692214966,-2.08998060226440,-8.19976902008057,4.88281583786011
21,695978501,157.42839050292969,71.79045104980469,-103.87356567382812,-10.61394691467285,2.42632603645325,-1.62576329708099,-4.65012454986572,-9.25702381134033,2.54556894302368
22,695986834,157.17070007324219,71.89472961425781,-104.11071777343750,-10.30700206756592,2.71956300735474,-1.54745197296143,-4.87367248535156,-14.62969970703125,1.65471839904785
23,695995167,156.42549133300781,72.09848022460938,-104.80845642089844,-9.79274177551270,3.14582562446594,-1.23739230632782,-5.71152734756470,-15.78591442108154,2.08079838752747
24,696003500,156.06768798828125,72.22179412841797,-105.15615081787109,-9.95077323913574,3.13452816009521,-1.04584324359894,-4.20405340194702,-18.35438537597656,4.04182481765747
25,696011833,154.92834472656250,72.47724151611328,-106.26059722900391,-10.26564598083496,2.86558198928833,-1.53535556793213,-4.02874946594238,-24.79742240905762,5.21339607238770
26,696020166,154.47666931152344,72.67059326171875,-106.68743896484375,-9.81611824035645,2.37784051895142,-2.41814136505127,-6.31510353088379,-27.19051551818848,2.25792193412781
27,696028499,154.11247253417969,72.84819793701172,-107.02030944824219,-9.03127098083496,2.45370340347290,-2.40737318992615,-6.54837179183960,-24.00701904296875,-0.27510982751846
28,696036832,153.20991516113281,73.06275177001953,-107.84289550781250,-8.94016933441162,2.16794300079346,-2.36752104759216,-8.31633186340332,-20.68068695068359,-3.79961752891541
29,696045165,152.46524047851562,73.23747253417969,-108.48750305175781,-8.56145381927490,2.21843004226685,-2.21284055709839,-10.88939857482910,-21.20687103271484,-7.12548685073853
30,696053498,152.24902343750000,73.40472412109375,-108.58683013916016,-8.06321811676025,2.13999009132385,-2.51374936103821,-15.50790405273438,-19.02627754211426,-7.97867202758789
31,696061831,151.50088500976562,73.54686737060547,-109.20491027832031,-7.83024358749390,2.17411160469055,-2.50101828575134,-15.08993244171143,-22.44252777099609,-6.44266366958618
32,696070164,151.14292907714844,73.71981811523438,-109.45987701416016,-7.51589298248291,2.08512997627258,-2.54847693443298,-14.58343410491943,-22.00851821899414,-4.09560251235962
33,696078497,150.31301879882812,73.79727935791016,-110.17755126953125,-7.82556343078613,2.07485294342041,-2.52463769912720,-13.97853088378906,-22.52403450012207,-0.80248183012009
34,696086830,149.81695556640625,73.92305755615234,-110.58151245117188,-7.89496183395386,2.19537544250488,-2.40704345703125,-13.94274425506592,-19.47199058532715,2.44352245330811
35,696095163,148.92536926269531,73.91405487060547,-111.35353851318359,-8.35017108917236,2.55282425880432,-1.78493785858154,-15.47276115417480,-17.21327400207520,5.46357011795044
36,696103496,148.30390930175781,73.99012756347656,-111.83949279785156,-8.82152080535889,2.51987314224243,-1.38271498680115,-19.50482749938965,-15.85556507110596,7.31038331985474
37,696111829,147.26515197753906,73.98081970214844,-112.69616699218750,-8.99177742004395,2.61351275444031,-1.25118494033813,-22.63076782226562,-14.62298393249512,6.59554195404053
38,696120162,146.68881225585938,74.03832244873047,-113.07252502441406,-9.02230644226074,2.84623765945435,-1.07795584201813,-26.72016334533691,-12.23279190063477,4.97019052505493
39,696128495,145.57643127441406,74.04965972900391,-113.90355682373047,-9.13428688049316,2.76235699653625,-1.12310612201691,-33.54956817626953,-11.41505908966064,3.33953619003296
40,696136828,144.98295593261719,74.12598419189453,-114.21096801757812,-9.22378444671631,2.46494913101196,-1.50126779079437,-36.71654129028320,-12.95415878295898,1.39406931400299
41,696145161,143.88275146484375,74.16517639160156,-114.99517059326172,-8.81285095214844,2.68302273750305,-1.46672976016998,-37.29839324951172,-11.24202442169189,0.02916184253991
42,696153494,143.35867309570312,74.22289276123047,-115.21076965332031,-8.48010444641113,2.67278313636780,-1.07332551479340,-38.96044921875000,-9.41735649108887,-0.13118349015713
43,696161827,142.21942138671875,74.25056457519531,-116.00501251220703,-8.19571876525879,2.43934273719788,-0.82985532283783,-40.60882568359375,-9.93583965301514,0.12141164392233
44,696170160,141.59608459472656,74.29975128173828,-116.29640197753906,-7.98269653320312,2.32427835464478,-0.64132976531982,-42.12361145019531,-10.15891742706299,2.11028313636780
45,696178493,140.28730773925781,74.32047271728516,-117.23868560791016,-8.11450767517090,1.85707581043243,-0.89179128408432,-43.78163146972656,-10.30591773986816,4.84189319610596
46,696186826,139.54644775390625,74.34707641601562,-117.65070343017578,-8.17426681518555,1.52933001518250,-1.07232487201691,-42.26554489135742,-10.70588493347168,6.45510578155518
47,696195159,138.82157897949219,74.35457611083984,-118.03037261962891,-8.38448143005371,1.32614123821259,-1.22501146793365,-44.08585357666016,-8.37644577026367,7.01388168334961
48,696203492,137.55603027343750,74.37799072265625,-118.92593383789062,-8.69895458221436,1.40834987163544,-1.24965715408325,-44.87026977539062,-9.84752655029297,6.68868303298950
49,696211825,136.31013488769531,74.40688323974609,-119.75560760498047,-8.71133804321289,1.35941016674042,-1.49600017070770,-51.30247497558594,-9.83961677551270,8.93913269042969
50,696220158,135.43817138671875,74.41200256347656,-120.26988220214844,-8.67299079895020,0.80443465709686,-2.40470361709595,-46.16513442993164,-11.64911079406738,9.77464294433594
51,696228491,134.55607604980469,74.37302398681641,-120.82949066162109,-8.43501949310303,1.46968376636505,-2.15557670593262,-42.13975906372070,-9.12745666503906,14.38718414306641
52,696236824,133.45515441894531,74.33706665039062,-121.61286926269531,-9.13229084014893,0.75268763303757,-2.20535707473755,-40.89236831665039,-7.89300251007080,17.08467483520508
53,696245157,132.55944824218750,74.28487396240234,-122.22946166992188,-9.39276695251465,1.06002986431122,-1.47537994384766,-36.90028381347656,-6.74659442901611,17.80199813842773
54,696253490,131.65209960937500,74.19512939453125,-122.83156585693359,-10.02323627471924,1.21198606491089,-1.00843107700348,-40.32466888427734,-7.00209999084473,19.44235420227051
55,696261823,130.72114562988281,74.12044525146484,-123.46773529052734,-10.29663658142090,0.20309090614319,-1.56570982933044,-39.24576568603516,-9.44162940979004,18.76657295227051
56,696270156,129.76193237304688,74.10597229003906,-124.18282318115234,-10.26766490936279,0.77862960100174,-1.16487729549408,-33.55971527099609,-11.15542411804199,19.82151412963867
57,696278489,128.90681457519531,74.12107849121094,-124.77555084228516,-10.58557605743408,0.18811345100403,-1.57495105266571,-36.12514495849609,-9.07214069366455,20.39204978942871
58,696286822,128.03842163085938,74.02439117431641,-125.41488647460938,-10.42481517791748,0.03958844393492,-1.58282041549683,-31.41576004028320,-8.92274284362793,20.47814750671387
59,696295155,127.25637054443359,73.90953063964844,-126.01509094238281,-10.15856838226318,0.42569774389267,-1.41616988182068,-25.60144042968750,-6.99229526519775,21.36044692993164
60,696303488,126.21158599853516,73.95577239990234,-126.88338470458984,-11.23405456542969,1.88813066482544,0.36375734210014,-28.25714874267578,-19.12063598632812,28.68440437316895
61,696311821,124.70867919921875,74.02553558349609,-128.18421936035156,-12.04530811309814,-0.41834545135498,-1.21300160884857,-32.64974975585938,-28.77128410339355,35.37438201904297
62,696320154,123.80528259277344,73.89160156250000,-129.11746215820312,-10.49813556671143,-2.04440140724182,-2.32093214988708,-1.75493526458740,-16.17606925964355,29.01166534423828
63,696328487,123.30970764160156,73.72631835937500,-129.68852233886719,-10.95296001434326,2.32036066055298,0.71400994062424,5.36000013351440,-4.61717367172241,25.38683509826660
64,696336820,122.73809051513672,73.85011291503906,-130.14334106445312,-12.29716205596924,0.65564441680908,-0.23597374558449,-20.44771194458008,-10.60796737670898,23.66164970397949
65,696345153,121.61708068847656,74.06795501708984,-131.30537414550781,-11.51759243011475,-0.20276862382889,-1.30231797695160,-3.15012001991272,-30.50777053833008,25.20760536193848
66,696353486,120.52146148681641,73.91388702392578,-132.47827148437500,-10.82852649688721,1.33139574527740,-0.86986267566681,2.81347203254700,-23.34698867797852,34.17197799682617
67,696361819,119.56726074218750,73.77633666992188,-133.53005981445312,-11.34574317932129,-0.03471986204386,-1.29448413848877,5.73649454116821,-21.78861045837402,30.16843414306641
68,696370152,118.69287109375000,73.91661071777344,-134.53472900390625,-11.60450553894043,0.24130934476852,-0.88010090589523,8.26708221435547,-21.95594978332520,30.34404754638672
69,696378485,117.97156524658203,74.08895874023438,-135.41456604003906,-12.00259971618652,-0.27681264281273,-1.37538540363312,11.77561950683594,-20.32247161865234,27.85794448852539
70,696386818,117.31232452392578,73.96183776855469,-136.24595642089844,-11.96205711364746,-0.21827638149261,-1.56259703636169,15.78503227233887,-16.87769889831543,24.55717277526855
71,696395151,116.75241088867188,73.82798004150391,-137.00010681152344,-12.43042087554932,0.55481755733490,-1.58838212490082,18.76258850097656,-14.70455741882324,24.02273178100586
72,696403484,116.46212005615234,74.02494812011719,-137.51863098144531,-12.71740627288818,0.31832939386368,-2.20103335380554,21.12560272216797,-12.14579486846924,23.24661827087402
73,696411817,116.35903930664062,74.21781921386719,-137.92417907714844,-12.33438873291016,0.84951549768448,-2.63008260726929,29.77286720275879,-11.03081226348877,23.56796073913574
74,696420150,115.98158264160156,74.06827545166016,-138.61714172363281,-12.44992160797119,2.18708443641663,-2.14262986183167,33.66874694824219,-12.09956836700439,24.44081878662109
75,696428483,115.28749084472656,73.92192077636719,-139.59741210937500,-13.07678508758545,2.70225620269775,-1.65220940113068,28.77741050720215,-21.27825546264648,28.17293930053711
76,696436816,114.91577911376953,74.14815521240234,-140.32969665527344,-12.10647869110107,0.25134167075157,-3.26381039619446,34.90397644042969,-25.94075393676758,21.74791526794434
77,696445149,115.08403015136719,74.33745574951172,-140.64788818359375,-10.82453823089600,0.61081361770630,-4.27044725418091,51.42124938964844,-15.09767246246338,18.45392799377441
78,696453482,114.88826751708984,74.17930603027344,-141.28149414062500,-12.16482734680176,3.06038665771484,-3.13115382194519,48.66228866577148,-10.29929447174072,24.23902320861816
79,696461815,114.55273437500000,74.04646301269531,-142.07675170898438,-11.96230030059814,1.63205361366272,-3.87951636314392,50.50767135620117,-16.69123268127441,23.71986198425293
80,696470148,114.76730346679688,74.13554382324219,-142.49732971191406,-10.46239757537842,1.75521194934845,-4.57179260253906,67.66613769531250,-19.80797004699707,27.54877090454102
81,696478481,115.03971862792969,74.12065887451172,-142.94519042968750,-10.60414123535156,3.22063755989075,-4.41704559326172,76.36815643310547,-22.83815002441406,36.99975585937500
82,696486814,114.44601440429688,73.93591308593750,-144.32540893554688,-9.91423225402832,2.08682775497437,-4.79971504211426,86.96359252929688,-31.73675727844238,37.53865432739258
83,696495147,113.75875854492188,73.69982147216797,-145.91377258300781,-8.85087299346924,3.52568936347961,-4.70583105087280,99.56156158447266,-36.54426956176758,45.86917877197266
84,696503480,113.69116210937500,73.56693267822266,-146.98619079589844,-8.62933826446533,4.53420162200928,-4.17612600326538,106.29284667968750,-43.98767852783203,53.79980087280273
85,696511813,113.45850372314453,73.35490417480469,-148.32911682128906,-7.64385128021240,4.68440961837769,-4.08994197845459,117.00467681884766,-55.97392654418945,57.69813919067383
86,696520146,112.35449218750000,73.08649444580078,-150.58633422851562,-6.65028524398804,4.83936929702759,-4.61869287490845,125.82791900634766,-59.12977981567383,58.42830657958984
87,696528479,111.41833496093750,72.79705047607422,-152.75811767578125,-6.48970890045166,5.10872316360474,-5.31459379196167,135.78529357910156,-57.62149047851562,59.04541015625000
88,696536812,111.47405242919922,72.45457458496094,-154.04139709472656,-6.28410434722900,6.20102453231812,-4.77487421035767,143.46441650390625,-57.63921737670898,62.57385635375977
89,696545145,111.54845428466797,71.97018432617188,-155.40939331054688,-6.34197092056274,6.39436054229736,-5.20153999328613,154.22744750976562,-62.97047042846680,69.52919769287109
90,696553478,110.52208709716797,71.56588745117188,-157.94486999511719,-6.93710803985596,7.24495077133179,-4.89845323562622,164.80648803710938,-71.09304809570312,77.76151275634766
91,696561811,109.46883392333984,71.16434478759766,-160.55018615722656,-7.42175149917603,6.89053773880005,-5.44107389450073,168.84016418457031,-77.03668212890625,77.76136779785156
92,696570144,109.58059692382812,70.56113433837891,-162.12016296386719,-7.73947763442993,7.39122200012207,-6.11172866821289,178.59033203125000,-78.48849487304688,77.36700439453125
93,696578477,109.77723693847656,69.90209960937500,-163.58749389648438,-9.10593509674072,8.44376373291016,-5.54697036743164,175.06036376953125,-81.17368316650391,74.48570251464844
94,696586810,108.75234985351562,69.63235473632812,-166.23324584960938,-9.10945415496826,6.85287904739380,-6.73465871810913,173.92311096191406,-92.65380859375000,65.09275054931641
95,696595143,107.70275115966797,69.41217041015625,-168.93759155273438,-9.36832714080811,7.06863689422607,-6.73783302307129,177.04672241210938,-99.22229766845703,58.92179489135742
96,696603476,107.85420989990234,68.95828247070312,-170.48934936523438,-9.64951705932617,6.46648073196411,-7.30925464630127,174.86436462402344,-105.45285034179688,48.69520950317383
97,696611809,108.13064575195312,68.56296539306641,-171.95530700683594,-9.64348602294922,5.64623022079468,-8.08940124511719,177.39634704589844,-112.28145599365234,38.64544296264648
98,696620142,106.98846435546875,68.61354064941406,-174.79598999023438,-9.99147033691406,4.89699602127075,-8.58553409576416,179.32458496093750,-120.18286132812500,30.06440353393555
99,696628475,105.81076812744141,68.73522186279297,-177.74855041503906,-9.99274063110352,3.68740439414978,-9.77036476135254,187.72598266601562,-127.39906311035156,20.68761634826660
100,696636808,106.37843322753906,68.59252929687500,-179.13229370117188,-9.98187732696533,2.95862483978271,-10.55241012573242,198.41101074218750,-129.53392028808594,13.26598834991455
101,696645141,107.37696838378906,68.53105926513672,179.80178833007812,-10.15511417388916,2.03681898117065,-11.50127315521240,210.03674316406250,-130.10952758789062,6.83076190948486
102,696653474,106.58625793457031,68.80912780761719,176.92071533203125,-10.03745746612549,1.55976378917694,-12.55249595642090,226.22071838378906,-129.76402282714844,3.11495423316956
103,696661807,108.18489837646484,68.85431671142578,176.19535827636719,-10.27272319793701,1.95614159107208,-12.45713615417480,238.77163696289062,-132.79037475585938,2.88693976402283
104,696670140,107.42257690429688,69.15090942382812,173.11820983886719,-9.92162036895752,2.19450640678406,-13.02549934387207,252.33778381347656,-136.63195800781250,4.86777448654175
105,696678473,109.23896789550781,69.25367736816406,172.39910888671875,-10.06714630126953,3.30479860305786,-12.19890022277832,259.92507934570312,-146.56866455078125,8.90961265563965
106,696686806,108.12247467041016,69.52501678466797,168.71850585937500,-8.65197277069092,3.39620923995972,-14.64942836761475,278.51614379882812,-157.50881958007812,17.24180793762207
107,696695139,109.99722290039062,69.58528137207031,167.74089050292969,-8.01311683654785,5.98528242111206,-12.75360870361328,292.50048828125000,-165.96640014648438,27.60953330993652
108,696703472,108.49945831298828,69.75407409667969,163.49317932128906,-7.02798938751221,5.93824911117554,-12.97433948516846,297.35635375976562,-173.68968200683594,37.53599548339844
109,696711805,110.16597747802734,69.74283599853516,162.12693786621094,-5.87291336059570,7.88044118881226,-10.87137889862061,309.01995849609375,-186.03152465820312,46.07740783691406
110,696720138,107.80163574218750,69.82327270507812,156.87670898437500,-6.73545265197754,7.89072418212891,-9.83788585662842,306.64413452148438,-208.84661865234375,59.95168685913086
111,696728471,108.10202789306641,69.77696990966797,154.03741455078125,-6.08423328399658,8.66695976257324,-8.04860210418701,310.52362060546875,-244.66120910644531,69.14373779296875
112,696736804,104.44778442382812,69.84426879882812,147.50822448730469,-5.70727682113647,8.26197242736816,-6.33869314193726,296.05685424804688,-261.62704467773438,66.26184082031250
113,696745137,100.69013977050781,69.85701751708984,140.87979125976562,-4.21850442886353,7.80565166473389,-5.60997009277344,294.96307373046875,-267.47067260742188,56.38729095458984
114,696753470,100.70867156982422,70.01311492919922,137.98348999023438,-2.41497611999512,7.73688554763794,-5.48665618896484,285.33538818359375,-248.58132934570312,38.65406799316406
115,696761803,101.03479766845703,70.20069885253906,135.49848937988281,-0.86580443382263,7.19100904464722,-5.28895664215088,278.54742431640625,-226.98255920410156,23.76004409790039
116,696770136,98.62255859375000,70.36125946044922,130.51870727539062,0.68018513917923,6.07560062408447,-5.27131080627441,272.26608276367188,-201.84623718261719,13.66189289093018
117,696778469,99.78061676025391,70.57003784179688,129.10945129394531,1.24382710456848,5.26971673965454,-5.05269336700439,259.99816894531250,-177.59252929687500,8.58546447753906
118,696786802,97.95896148681641,70.68508148193359,124.94815063476562,-0.52061951160431,4.27108001708984,-2.78083729743958,251.69320678710938,-165.71134948730469,10.11246395111084
119,696795135,99.01490020751953,70.84042358398438,123.61314392089844,-2.11539602279663,3.81257867813110,-0.00332901254296,242.38325500488281,-165.92268371582031,12.84846305847168
120,696803468,96.95555877685547,70.88362121582031,119.33596038818359,-2.72176718711853,2.29480600357056,1.36652243137360,236.99609375000000,-167.29060363769531,16.43672370910645
121,696811801,97.66264343261719,71.01919555664062,117.74227142333984,-2.25683236122131,0.72971433401108,0.76713556051254,234.65142822265625,-160.95710754394531,17.33365058898926
122,696820134,96.02736663818359,70.97658538818359,113.88571166992188,-2.25893497467041,-0.22220307588577,-0.47323018312454,240.56216430664062,-148.95230102539062,21.21874809265137
123,696828467,97.08275604248047,71.03420257568359,112.58438110351562,-2.41908264160156,1.10528028011322,-1.77146434783936,246.96488952636719,-136.49868774414062,29.70217514038086
124,696836800,95.86476135253906,70.80366516113281,109.11553955078125,-3.66257333755493,3.63367319107056,-1.97421967983246,246.46453857421875,-132.06181335449219,40.99559783935547
125,696845133,96.68463134765625,70.69953918457031,107.64190673828125,-4.74649810791016,5.72557449340820,-0.99105840921402,239.99023437500000,-133.91261291503906,50.89892959594727
126,696853466,95.35237884521484,70.32037353515625,104.17636871337891,-5.75751590728760,5.95423030853271,-0.47056978940964,231.40943908691406,-133.19352722167969,57.95070648193359
127,696861799,96.06716156005859,70.09380340576172,102.72917175292969,-6.65370845794678,5.52685642242432,-0.62410926818848,225.93023681640625,-124.22467803955078,61.31371307373047
128,696870132,95.18350219726562,69.64253997802734,99.83049774169922,-7.78626871109009,5.55587434768677,-1.04252231121063,219.79872131347656,-113.82394409179688,63.77832794189453
129,696878465,95.99519348144531,69.37976074218750,98.66344451904297,-8.85170459747314,5.72764253616333,-1.05451190471649,206.94238281250000,-106.48815917968750,62.04179000854492
130,696886798,95.17992401123047,68.96339416503906,96.06177520751953,-9.37976074218750,6.18945074081421,-0.99287521839142,193.21820068359375,-105.61174011230469,58.68402862548828
131,696895131,94.27827453613281,68.55071258544922,93.45587921142578,-9.70445346832275,5.78566122055054,-0.38771241903305,182.48873901367188,-108.80115509033203,56.86334991455078
132,696903464,94.73493957519531,68.34260559082031,92.19814300537109,-9.57262802124023,5.09273958206177,-0.01205525174737,174.91876220703125,-106.89537811279297,54.35704803466797
133,696911797,94.98585510253906,68.11993408203125,90.82617187500000,-9.89455223083496,4.80136394500732,0.05168340355158,164.52961730957031,-106.42597198486328,53.55409240722656
134,696920130,94.00819396972656,67.73986816406250,88.37532806396484,-10.00024890899658,4.16161203384399,-0.28627586364746,154.49676513671875,-106.59037017822266,52.27109909057617
135,696928463,92.98442077636719,67.34237670898438,85.91636657714844,-10.74256610870361,4.12831401824951,-0.23111738264561,149.08317565917969,-109.58997344970703,52.64047622680664
136,696936796,92.97497558593750,67.14128112792969,84.44841766357422,-10.90255546569824,3.73348665237427,-0.20545265078545,144.58688354492188,-108.27903747558594,50.12038040161133
137,696945129,92.91542816162109,66.96692657470703,82.98645019531250,-11.15253925323486,4.21327733993530,-0.42679283022881,139.20376586914062,-104.43325042724609,46.36044692993164
138,696953462,91.90541839599609,66.60961151123047,80.68670654296875,-11.74450206756592,4.75060510635376,-0.24440211057663,131.70143127441406,-106.87818145751953,45.54160690307617
139,696961795,91.64261627197266,66.45232391357422,79.13121032714844,-11.48019695281982,4.72670221328735,0.13443832099438,125.93386840820312,-106.79810333251953,43.14861297607422
140,696970128,90.65349578857422,66.13092803955078,76.96758270263672,-11.40243721008301,5.17546796798706,0.13639535009861,118.30255126953125,-103.61945343017578,38.76807022094727
141,696978461,90.11618804931641,65.99903869628906,75.28601074218750,-11.80493164062500,4.92375326156616,0.66576379537582,107.79700469970703,-110.80391693115234,37.65240859985352
142,696986794,89.01830291748047,65.70833587646484,73.14286804199219,-10.44213104248047,3.44497060775757,0.17822185158730,102.20753479003906,-105.48573303222656,32.20721435546875
143,696995127,88.54153442382812,65.64587402343750,71.62091827392578,-10.56230068206787,3.81945800781250,0.18527916073799,98.67045593261719,-100.75958251953125,27.08828735351562
144,697003460,87.46075439453125,65.38507843017578,69.61441040039062,-10.46053504943848,2.83808493614197,0.36855840682983,88.71656036376953,-100.84775543212891,25.91273307800293
145,697011793,86.48867797851562,65.13529968261719,67.73644256591797,-10.03876781463623,2.34097552299500,-0.01351077854633,87.29031372070312,-95.77206420898438,23.08564186096191
146,697020126,85.93640136718750,65.08212280273438,66.26566314697266,-10.46665096282959,2.37876486778259,0.38033822178841,84.98034667968750,-96.73479461669922,23.46486091613770
147,697028459,85.32849121093750,65.03511047363281,64.73447418212891,-9.91344738006592,1.58400368690491,0.32503861188889,85.87939453125000,-97.84210968017578,22.53257369995117
148,697036792,84.47389221191406,64.77834320068359,62.98226928710938,-9.99350357055664,2.05740189552307,-0.07167186588049,87.15386962890625,-91.59333038330078,20.87295722961426
149,697045125,83.50730895996094,64.49856567382812,61.14787673950195,-10.26383495330811,2.12513780593872,0.65714883804321,82.19516754150391,-97.30526733398438,21.63899421691895
150,697053458,82.91387939453125,64.45980834960938,59.70008850097656,-9.60501384735107,1.78268253803253,0.76160150766373,79.34982299804688,-92.73260498046875,20.25483322143555
151,697061791,82.37288665771484,64.44342803955078,58.31042480468750,-9.42751693725586,1.77964591979980,0.69350415468216,80.38795471191406,-87.52331542968750,17.94663429260254
152,697070124,81.58374023437500,64.18716430664062,56.71158218383789,-9.46697235107422,1.46368312835693,0.96821123361588,77.49913024902344,-86.68261718750000,16.95439529418945
153,697078457,80.84548950195312,63.93049621582031,55.17312622070312,-9.99628829956055,1.67166686058044,0.78832161426544,76.70462036132812,-84.54690551757812,16.21842956542969
154,697086790,80.35850524902344,63.93000411987305,53.91902160644531,-9.75356769561768,1.73842370510101,0.45372304320335,73.23597717285156,-78.86518859863281,15.53524684906006
155,697095123,79.81653594970703,63.93116378784180,52.63251113891602,-10.09329700469971,2.06449556350708,0.83573424816132,70.91378784179688,-79.19122314453125,15.08465862274170
156,697103456,79.19785308837891,63.68832397460938,51.30639266967773,-9.89971256256104,2.12818217277527,0.60026097297668,67.85104370117188,-74.42985534667969,13.96298503875732
157,697111789,78.54606628417969,63.44255447387695,49.95930862426758,-10.54754829406738,1.99102580547333,0.85409337282181,65.82209014892578,-76.34613037109375,13.15771675109863
158,697120122,78.06691741943359,63.47981262207031,48.80910110473633,-10.40115165710449,1.51137161254883,0.31149205565453,64.53379058837891,-70.26515960693359,10.47407817840576
159,697128455,77.55590820312500,63.54008102416992,47.64340209960938,-10.69509696960449,1.58293807506561,0.50926977396011,62.98896789550781,-69.54594421386719,7.71978044509888
160,697136788,77.00140380859375,63.35951995849609,46.43226623535156,-10.22913360595703,0.73445707559586,0.95591753721237,62.76943969726562,-68.21629333496094,4.92821693420410
161,697145121,76.54730224609375,63.21551895141602,45.31333923339844,-10.60853958129883,0.97940540313721,1.16533172130585,64.74418640136719,-62.76721954345703,1.11750578880310
162,697153454,76.06833648681641,63.35690307617188,44.19012832641602,-10.05085659027100,0.58868741989136,1.81107318401337,63.22706222534180,-63.75164031982422,-1.74238240718842
163,697161787,75.57571411132812,63.51781082153320,43.04154968261719,-10.42691993713379,1.00878834724426,2.04814696311951,65.33462524414062,-62.79389190673828,-3.70526671409607
164,697170120,75.16578674316406,63.43220520019531,41.97006988525391,-9.69213294982910,0.69406247138977,1.65976333618164,65.16011810302734,-58.24786758422852,-6.46985387802124
165,697178453,74.77018737792969,63.35158920288086,40.91177749633789,-9.93082523345947,1.53043317794800,1.42337512969971,65.37142944335938,-57.51347732543945,-7.31028842926025
166,697186786,74.03610229492188,63.49020004272461,39.50753402709961,-11.38522148132324,1.10359776020050,3.14929819107056,65.25080108642578,-74.06795501708984,-5.43957519531250
167,697195119,73.73069763183594,63.44704055786133,38.48556137084961,-9.28269577026367,0.14585393667221,1.12811565399170,72.37516784667969,-54.14445114135742,-12.13356590270996
168,697203452,73.32634735107422,63.64632034301758,37.37985610961914,-10.66872501373291,2.78628349304199,1.52529430389404,74.05409240722656,-54.12257766723633,-8.46791172027588
169,697211785,72.91829681396484,63.54338073730469,36.30690383911133,-9.32318687438965,1.31644940376282,2.34736990928650,65.65921020507812,-58.46680068969727,-6.70704364776611
170,697220118,72.45760345458984,63.72248458862305,35.14256286621094,-11.00825977325439,1.65525925159454,2.09811830520630,74.32648468017578,-56.18812179565430,-7.88031816482544
171,697228451,72.16983032226562,63.97243881225586,34.19998168945312,-9.01185894012451,0.66871511936188,0.80213767290115,71.96196746826172,-40.66637420654297,-12.76025962829590
172,697236784,72.00268554687500,63.91094207763672,33.33078765869141,-10.26941680908203,3.29860043525696,2.15783834457397,72.96174621582031,-45.99354171752930,-8.97973060607910
173,697245117,71.81492614746094,63.86692810058594,32.50585556030273,-10.17535305023193,2.32945585250854,1.93268764019012,65.66763305664062,-43.15657806396484,-10.41376876831055
174,697253450,71.54573059082031,64.13200378417969,31.63080787658691,-10.30940341949463,1.89051818847656,1.58137190341949,67.57381439208984,-34.88415145874023,-14.45981311798096
175,697261783,71.31522369384766,64.41952514648438,30.82598686218262,-10.23428916931152,2.42763400077820,0.87240827083588,64.95343017578125,-29.44656372070312,-16.46160316467285
176,697270116,71.34313201904297,64.46687316894531,30.27408218383789,-10.47844409942627,3.18764328956604,1.20272064208984,62.42048645019531,-25.38924407958984,-16.43695449829102
177,697278449,71.38318634033203,64.53044128417969,29.77335548400879,-10.31982898712158,2.89537239074707,1.04431128501892,58.35873413085938,-22.19253730773926,-17.39984130859375
178,697286782,71.32103729248047,64.87979125976562,29.23761940002441,-9.77459430694580,2.85435938835144,0.48111686110497,56.21415328979492,-12.84706687927246,-19.99289894104004
179,697295115,71.36377716064453,65.24880981445312,28.82844543457031,-9.51227760314941,3.16795039176941,0.12473227828741,54.78726196289062,-5.89303445816040,-21.20929336547852
180,697303448,71.60501861572266,65.38089752197266,28.56995964050293,-9.88555049896240,3.21343493461609,1.14354240894318,56.45667648315430,-7.40438127517700,-21.05465888977051
181,697311781,72.06317901611328,65.58995819091797,28.56000328063965,-9.05568599700928,2.90515589714050,-0.33097216486931,55.38937377929688,7.21920251846313,-25.89840507507324
182,697320114,72.27586364746094,65.98093414306641,28.30953025817871,-10.26566410064697,5.20219373703003,1.11229157447815,57.59991455078125,2.40834832191467,-22.44852066040039
183,697328447,72.58705139160156,66.39787292480469,28.20813369750977,-9.43727207183838,4.72473430633545,0.92154610157013,52.50633239746094,9.87023258209229,-25.06376075744629
184,697336780,73.19346618652344,66.64343261718750,28.40411567687988,-9.19431495666504,5.36382532119751,0.48157998919487,50.52982711791992,17.45862388610840,-27.31579399108887
185,697345113,73.86221313476562,66.92026519775391,28.70415687561035,-9.07673358917236,5.33774232864380,0.52000427246094,46.48640823364258,22.88594436645508,-29.73809432983398
186,697353446,74.35857391357422,67.41847229003906,28.90065574645996,-9.43578624725342,5.19063186645508,0.70639646053314,41.11326599121094,24.88308715820312,-33.26961135864258
187,697361779,74.92750549316406,67.93193054199219,29.21491813659668,-9.10951042175293,4.43707561492920,-0.18325394392014,36.06262969970703,29.73753356933594,-36.31579589843750
188,697370112,75.73258209228516,68.28259277343750,29.75259208679199,-9.11981105804443,4.23329639434814,0.03836399316788,36.07768630981445,33.75500106811523,-36.51631546020508
189,697378445,76.66488647460938,68.64874267578125,30.45245742797852,-9.01386070251465,4.15640068054199,-1.16139853000641,33.08267974853516,40.26124954223633,-37.22209548950195
190,697386778,77.50895690917969,69.12017059326172,31.06896400451660,-9.73910236358643,4.90179347991943,-0.13929580152035,34.14420318603516,37.99949264526367,-31.65793418884277
191,697395111,78.50909423828125,69.57532501220703,31.87174224853516,-9.60003566741943,4.32520008087158,-0.51149940490723,31.09687232971191,43.29953384399414,-30.63083457946777
192,697403444,79.65427398681641,69.84303283691406,32.79784011840820,-10.26321792602539,4.98722934722900,-0.14142915606499,32.52010345458984,43.74557113647461,-26.14880943298340
193,697411777,80.87120056152344,70.11231994628906,33.82705688476562,-10.36896324157715,4.65876913070679,-0.42427581548691,29.32018852233887,46.97424316406250,-26.60236740112305
194,697420110,82.06661224365234,70.48501586914062,34.82812500000000,-11.05836772918701,5.15543985366821,-0.12435494363308,30.88098907470703,45.14527130126953,-24.12305068969727
195,697428443,83.25697326660156,70.84345245361328,35.85117340087891,-11.10433101654053,4.79075622558594,-0.09070766717196,27.13614463806152,43.97909164428711,-24.95107841491699
196,697436776,84.52134704589844,71.09203338623047,36.95557403564453,-10.94901943206787,4.71404743194580,-0.58484089374542,25.77623367309570,45.95847320556641,-26.95996093750000
197,697445109,85.74363708496094,71.43274688720703,38.02323913574219,-11.32641887664795,5.01913309097290,-0.43422663211823,25.08935165405273,42.46117782592773,-26.09856986999512
198,697453442,86.88092041015625,71.66346740722656,38.98379135131836,-11.45054817199707,5.07102966308594,-0.22378863394260,26.47138977050781,37.99697875976562,-27.18519592285156
199,697461775,87.88118743896484,71.97899627685547,39.79319381713867,-11.47867965698242,5.13421821594238,0.08751790970564,27.20443534851074,29.89846611022949,-26.69487762451172
200,697470108,88.84331512451172,72.20620727539062,40.57901000976562,-11.23404884338379,4.70192289352417,-0.53040987253189,25.06031036376953,29.56783103942871,-28.32890701293945
201,697478441,89.80803680419922,72.51010894775391,41.36539459228516,-11.42627811431885,4.88940763473511,-0.61746549606323,25.12114334106445,26.95100212097168,-27.66901206970215
202,697486774,90.66638183593750,72.72850036621094,42.05447387695312,-11.18504905700684,4.72331571578979,-0.58276557922363,23.42486000061035,24.39533233642578,-28.21041297912598
203,697495107,91.49701690673828,72.93852233886719,42.71660995483398,-10.86202335357666,4.40637779235840,-0.63102531433105,23.09630203247070,22.78631782531738,-27.54072570800781
204,697503440,92.37382507324219,73.20604705810547,43.43053436279297,-10.54961872100830,4.22716903686523,-0.79264265298843,22.33913993835449,21.68492698669434,-25.67902565002441
205,697511773,93.21434783935547,73.44586181640625,44.10288619995117,-10.24696731567383,4.13946771621704,-0.72336828708649,22.54597282409668,19.43286705017090,-23.63922691345215
206,697520106,93.91085052490234,73.60427856445312,44.61517715454102,-9.98997783660889,3.76679372787476,-0.60726952552795,23.96799659729004,16.01978683471680,-21.95498466491699
207,697528439,94.80467987060547,73.82535552978516,45.31726074218750,-9.29610347747803,3.07486438751221,-1.33728349208832,25.27289390563965,19.20623016357422,-22.91365242004395
208,697536772,95.66195678710938,73.96131896972656,45.92807006835938,-9.64625740051270,3.50110149383545,-0.98267394304276,31.79086303710938,18.55970573425293,-20.00572395324707
209,697545105,96.46762847900391,74.14111328125000,46.47655487060547,-9.70797538757324,3.68416309356689,-0.55284172296524,32.15414047241211,13.14909744262695,-18.67413139343262
210,697553438,97.20867156982422,74.26333618164062,46.93203735351562,-9.25290489196777,3.58154106140137,-0.66885203123093,35.67193222045898,12.82633399963379,-18.23669624328613
211,697561771,98.03176116943359,74.41424560546875,47.44628524780273,-9.09789848327637,3.63431787490845,-0.96901160478592,38.08295822143555,11.61957073211670,-16.24339485168457
212,697570104,98.71398162841797,74.50355529785156,47.79957580566406,-8.95228672027588,3.29885220527649,-1.00068104267120,40.35807418823242,9.47043037414551,-14.16333866119385
213,697578437,99.61369323730469,74.62698364257812,48.34814453125000,-8.57079029083252,3.31083488464355,-0.99677473306656,43.18879318237305,12.37688636779785,-14.20722007751465
214,697586770,100.51903533935547,74.72926330566406,48.90201187133789,-8.08738517761230,3.41065478324890,-1.07690858840942,43.87887954711914,14.94405460357666,-17.05371284484863
215,697595103,101.62660217285156,74.87203979492188,49.65592956542969,-7.74992513656616,3.11188840866089,-1.60583496093750,44.22734451293945,17.35151863098145,-18.88677597045898
216,697603436,102.69891357421875,74.96851348876953,50.34244537353516,-7.68001508712769,3.02962303161621,-1.74393975734711,48.47315597534180,18.31036949157715,-17.73091125488281
217,697611769,103.94691467285156,75.08081817626953,51.16602706909180,-7.73533678054810,3.14187407493591,-1.75590407848358,52.79561614990234,18.80501747131348,-17.15155029296875
218,697620102,105.04841613769531,75.16039276123047,51.82363128662109,-7.61783981323242,3.31043505668640,-1.62719511985779,55.25416183471680,17.01987838745117,-16.21990585327148
219,697628435,106.27642822265625,75.25598144531250,52.60075759887695,-7.54453706741333,3.01623773574829,-1.64625978469849,55.62898254394531,16.63418006896973,-16.27087783813477
220,697636768,107.47964477539062,75.32310485839844,53.33841323852539,-7.39311504364014,2.94994544982910,-1.86481678485870,58.10626220703125,18.96390914916992,-16.13794517517090
221,697645101,108.84748840332031,75.38574981689453,54.21592330932617,-7.49756765365601,3.22092294692993,-1.72032582759857,60.62249755859375,19.51121711730957,-14.79591274261475
222,697653434,109.99391937255859,75.43316650390625,54.87888336181641,-7.68032169342041,3.32812929153442,-1.22704434394836,59.91924285888672,16.80247306823730,-13.93181133270264
223,697661767,111.28703308105469,75.48008728027344,55.68622589111328,-7.67496728897095,3.15063238143921,-1.16923213005066,59.74832534790039,17.24209213256836,-13.81250000000000
224,697670100,112.59698486328125,75.51161193847656,56.52879714965820,-7.68589639663696,3.35639119148254,-1.14467811584473,58.64169692993164,21.86657905578613,-14.87431526184082
225,697678433,114.10813140869141,75.53434753417969,57.59153366088867,-7.82966947555542,3.60580134391785,-0.94035452604294,56.24222946166992,24.70198059082031,-15.67015361785889
226,697686766,115.50666809082031,75.55438232421875,58.57008361816406,-7.99094295501709,3.88093185424805,-0.97644799947739,53.45137786865234,25.38835906982422,-16.39085769653320
227,697695099,117.01410675048828,75.56493377685547,59.67728805541992,-8.03918552398682,4.10743570327759,-0.98079127073288,50.69001388549805,25.81055450439453,-17.02911186218262
228,697703432,118.36263275146484,75.57968139648438,60.65538024902344,-8.05838775634766,4.29412126541138,-1.13829255104065,47.49023818969727,24.86338043212891,-17.06499290466309
229,697711765,119.78875732421875,75.57183837890625,61.74164581298828,-7.87664270401001,4.15498256683350,-1.66949081420898,43.46291732788086,25.62256050109863,-17.01670455932617
230,697720098,121.04532623291016,75.55310058593750,62.71886062622070,-7.74391078948975,4.05536651611328,-1.53825342655182,36.56138229370117,26.14436340332031,-14.77280998229980
231,697728431,122.38771820068359,75.50353240966797,63.80152130126953,-7.69793510437012,3.81820058822632,-2.04158473014832,33.93030548095703,27.47684097290039,-14.85515785217285
232,697736764,123.56526947021484,75.46174621582031,64.72177886962891,-7.77772521972656,4.01207160949707,-2.28702664375305,33.73729705810547,25.74625587463379,-12.76853847503662
233,697745097,124.64081573486328,75.38145446777344,65.53557586669922,-7.64475440979004,3.79506540298462,-2.45280361175537,33.22561645507812,22.28435134887695,-9.32928085327148
234,697753430,125.62079620361328,75.30174255371094,66.26010894775391,-7.53367090225220,3.82161211967468,-2.16698813438416,32.81596374511719,23.29032516479492,-6.74841260910034
235,697761763,126.62079620361328,75.16764831542969,67.01977539062500,-7.77957820892334,3.87589240074158,-1.78616058826447,30.55092048645020,24.55802345275879,-4.83743381500244
236,697770096,127.50669860839844,75.05436706542969,67.68085479736328,-8.14365482330322,3.80400061607361,-1.85716331005096,28.97681808471680,24.24829673767090,-3.35354828834534
237,697778429,128.30967712402344,74.90014648437500,68.25475311279297,-8.48679447174072,3.52589416503906,-2.07560753822327,28.62594985961914,21.73871040344238,-1.06916499137878
238,697786762,128.97943115234375,74.78352355957031,68.69756317138672,-8.74715328216553,3.24358415603638,-1.99715614318848,28.41465377807617,19.38365745544434,0.33894070982933
239,697795095,129.53919982910156,74.63965606689453,69.05788421630859,-9.36349105834961,2.89985632896423,-1.89216899871826,24.30094528198242,16.01453208923340,1.11525738239288
240,697803428,130.00282287597656,74.55542755126953,69.33100891113281,-9.56716251373291,2.57370901107788,-2.02094769477844,23.36742973327637,12.94945049285889,0.28261482715607
241,697811761,130.49177551269531,74.44343566894531,69.61647033691406,-9.56267642974854,2.57027554512024,-2.04666900634766,24.54174613952637,11.97590541839600,-0.76233142614365
242,697820094,130.99407958984375,74.38134002685547,69.93699645996094,-9.51342582702637,2.58512210845947,-1.99736857414246,22.55822563171387,12.49433708190918,-3.01594972610474
243,697828427,131.48312377929688,74.33371734619141,70.26781463623047,-9.65890789031982,2.63785076141357,-2.10916924476624,19.79070472717285,11.60185623168945,-4.67444562911987
244,697836760,132.01393127441406,74.25913238525391,70.64251708984375,-9.68404102325439,2.60093188285828,-2.21945381164551,19.32918930053711,11.41523170471191,-6.51890230178833
245,697845093,132.52381896972656,74.19750976562500,70.99107360839844,-9.86238193511963,2.85650229454041,-2.13894987106323,19.87510681152344,9.79761600494385,-7.29027605056763
246,697853426,132.99653625488281,74.18453979492188,71.30893707275391,-9.86258888244629,2.89962077140808,-2.14655280113220,19.35692787170410,8.48119640350342,-7.83580732345581
247,697861759,133.45478820800781,74.17592620849609,71.62870025634766,-9.83042240142822,2.76754236221313,-2.29517173767090,17.40520286560059,8.12182998657227,-8.32688522338867
248,697870092,133.88180541992188,74.12793731689453,71.90892028808594,-9.81719970703125,2.58780050277710,-2.45258498191833,17.88182830810547,7.10081863403320,-7.36012506484985
249,697878425,134.29972839355469,74.06964874267578,72.17321777343750,-9.69889736175537,2.52464294433594,-2.48232531547546,18.66183280944824,7.60265302658081,-6.23683786392212
250,697886758,134.69421386718750,74.04167938232422,72.40705108642578,-9.47926712036133,2.51961588859558,-2.90649223327637,19.68384170532227,7.65129518508911,-4.93550634384155
251,697895091,135.06977844238281,74.00074005126953,72.61724853515625,-9.24373912811279,2.72998023033142,-2.96110939979553,20.14925575256348,8.18033218383789,-3.33904767036438
252,697903424,135.38946533203125,73.91149139404297,72.79135894775391,-9.03886413574219,2.95638179779053,-2.77571630477905,17.29456901550293,8.07761764526367,-1.76761329174042
253,697911757,135.59892272949219,73.81919097900391,72.85413360595703,-8.95385456085205,2.66012096405029,-2.91303539276123,16.90236473083496,5.65786600112915,0.94656145572662
254,697920090,135.75566101074219,73.75337219238281,72.85212707519531,-8.81272888183594,2.43900227546692,-3.02125382423401,18.36968040466309,5.39931631088257,3.63449478149414
255,697928423,135.85177612304688,73.67724609375000,72.79055786132812,-8.83626747131348,2.54790854454041,-2.49452066421509,17.95454978942871,4.89947986602783,5.92684221267700
256,697936756,135.92037963867188,73.56474304199219,72.69543457031250,-8.93684291839600,2.12067127227783,-2.53094196319580,18.15733718872070,3.57371282577515,6.33792495727539
257,697945089,136.03556823730469,73.44494628906250,72.63090515136719,-8.91230678558350,2.12138652801514,-2.59279847145081,20.21618461608887,4.93321418762207,6.22842407226562
258,697953422,136.11964416503906,73.36575317382812,72.54111480712891,-9.12347221374512,2.39933657646179,-2.40946769714355,19.74278068542480,4.50066614151001,6.86831903457642
259,697961755,136.15327453613281,73.29408264160156,72.39107513427734,-9.10268974304199,2.72298860549927,-2.33858823776245,20.61136054992676,2.41612768173218,7.75341892242432
260,697970088,136.13247680664062,73.18115234375000,72.18251800537109,-9.05826377868652,2.99633193016052,-2.27656245231628,20.41961097717285,0.88237237930298,9.31171226501465
261,697978421,136.08357238769531,73.05532073974609,71.94480895996094,-9.07058048248291,3.24459314346313,-2.28758144378662,20.41234207153320,1.31492030620575,11.06562423706055
262,697986754,135.91656494140625,72.97931671142578,71.61598968505859,-9.41730308532715,3.05015110969543,-2.12117600440979,17.02390480041504,-1.65101730823517,12.68433952331543
263,697995087,135.72949218750000,72.91439819335938,71.26107025146484,-9.40893459320068,2.67863559722900,-2.22726488113403,17.59187698364258,-3.32385826110840,12.45032978057861
264,698003420,135.53019714355469,72.81457519531250,70.90980529785156,-9.46817493438721,2.54179954528809,-2.08372545242310,15.38164615631104,-3.84894919395447,11.75023746490479
265,698011753,135.30285644531250,72.72710418701172,70.52883148193359,-9.37287902832031,2.20571899414062,-2.28962373733521,15.42286109924316,-5.64151144027710,11.52060794830322
266,698020086,135.13900756835938,72.67900848388672,70.21745300292969,-9.11546134948730,2.29963159561157,-2.05127668380737,15.33697509765625,-3.93089008331299,10.00314235687256
267,698028419,135.00027465820312,72.63470458984375,69.94961547851562,-8.94923686981201,2.14963102340698,-2.05070257186890,13.35583877563477,-3.20984840393066,8.59722709655762
268,698036752,134.88992309570312,72.54782867431641,69.69673919677734,-8.75430583953857,2.04140830039978,-2.50939869880676,14.74129199981689,-2.57228469848633,8.40501785278320
269,698045085,134.72828674316406,72.45999145507812,69.36194610595703,-8.70373153686523,1.85411310195923,-3.19168710708618,17.93872070312500,-4.59591341018677,10.72072887420654
270,698053418,134.48579406738281,72.40972137451172,68.89562225341797,-8.58650016784668,1.80621051788330,-3.45699119567871,23.57281112670898,-7.99426031112671,14.19773769378662
271,698061751,134.22286987304688,72.34305572509766,68.38011169433594,-8.55547523498535,1.76757240295410,-3.31675148010254,26.73135948181152,-8.00530052185059,16.86830902099609
272,698070084,133.96234130859375,72.21829223632812,67.84567260742188,-8.74608421325684,1.96251273155212,-2.76769924163818,28.73155975341797,-7.27514266967773,19.23973083496094
273,698078417,133.63320922851562,72.09781646728516,67.21419525146484,-9.11738204956055,2.15778970718384,-2.75602054595947,31.46637535095215,-10.54273223876953,21.57376098632812
274,698086750,133.20674133300781,72.01837921142578,66.47451019287109,-8.99260330200195,2.30091023445129,-2.47060608863831,32.58923339843750,-13.52031517028809,23.75627899169922
275,698095083,132.79010009765625,71.93730163574219,65.72441101074219,-8.98700428009033,2.48756408691406,-2.56701111793518,34.92467498779297,-13.93944549560547,24.15678787231445
276,698103416,132.37873840332031,71.81733703613281,64.96453857421875,-9.00999259948730,2.44774866104126,-2.41016077995300,36.05570602416992,-14.95981693267822,24.99053764343262
277,698111749,132.00570678710938,71.69799804687500,64.23072052001953,-9.01992130279541,2.57358694076538,-2.31957530975342,37.60849380493164,-14.59612083435059,24.38727188110352
278,698120082,131.60684204101562,71.61139678955078,63.47416305541992,-9.08650302886963,2.64572238922119,-2.67969846725464,37.63068008422852,-14.58154773712158,24.82935142517090
279,698128415,131.17996215820312,71.52937316894531,62.67813491821289,-9.07725906372070,2.61950564384460,-2.78808093070984,38.71885299682617,-16.35331535339355,25.39616966247559
280,698136748,130.80358886718750,71.40395355224609,61.91074752807617,-9.00002288818359,2.45811176300049,-2.89534139633179,40.83037567138672,-16.01477432250977,25.89742279052734
281,698145081,130.42283630371094,71.27822875976562,61.14581298828125,-8.95958137512207,2.44652366638184,-2.55749726295471,39.92150497436523,-16.31574249267578,25.97523689270020
282,698153414,130.01438903808594,71.18960571289062,60.34883880615234,-8.96562957763672,2.25194811820984,-2.46259331703186,40.85951995849609,-16.83402061462402,26.01650238037109
283,698161747,129.60191345214844,71.10654449462891,59.52828216552734,-8.97086620330811,2.13550710678101,-2.37178087234497,43.01108169555664,-18.26922035217285,26.06425285339355
284,698170080,129.22703552246094,70.99048614501953,58.71329116821289,-8.95252132415771,2.04623246192932,-2.39803028106689,46.08562850952148,-19.55006599426270,26.47956848144531
285,698178413,128.86849975585938,70.87237548828125,57.88940429687500,-9.03009223937988,1.93331384658813,-2.37746167182922,48.95198822021484,-19.96861267089844,27.08520507812500
286,698186746,128.47074890136719,70.78414154052734,57.00672149658203,-9.08813285827637,1.88179528713226,-2.23421525955200,51.63531112670898,-20.75461959838867,28.02530860900879
287,698195079,128.11148071289062,70.68550872802734,56.14248275756836,-9.09358978271484,1.89003455638885,-2.09237623214722,54.11066436767578,-19.72951126098633,28.52738189697266
288,698203412,127.85240173339844,70.54687500000000,55.36329269409180,-9.21639537811279,2.05238986015320,-1.74691462516785,55.56986999511719,-18.01522254943848,28.20405387878418
289,698211745,127.58971405029297,70.42259216308594,54.58450317382812,-9.33910369873047,2.11141991615295,-2.07414722442627,55.01608276367188,-19.23057365417480,27.10857963562012
290,698220078,127.25881195068359,70.34544372558594,53.73428726196289,-9.26076221466064,2.53704047203064,-2.29297399520874,55.71304702758789,-21.78672981262207,26.18741226196289
291,698228411,126.89993286132812,70.27896118164062,52.85881805419922,-8.97116279602051,2.69912481307983,-2.03227543830872,55.16905212402344,-23.63592910766602,25.72973442077637
292,698236744,126.57897949218750,70.19773101806641,51.98641586303711,-8.45844364166260,2.46927571296692,-2.33658409118652,58.40682601928711,-26.12832260131836,25.40408897399902
293,698245077,126.32705688476562,70.10412597656250,51.15597915649414,-8.07499313354492,2.47657251358032,-2.64948391914368,61.90269470214844,-24.08970260620117,25.62806320190430
294,698253410,126.07441711425781,70.02080535888672,50.29244232177734,-7.84588909149170,2.29673767089844,-2.64475679397583,66.41326141357422,-22.82354927062988,26.95344161987305
295,698261743,125.87604522705078,69.89855957031250,49.42067718505859,-7.69877243041992,2.04971456527710,-2.50078630447388,72.80220794677734,-24.01013374328613,29.52256774902344
296,698270076,125.57779693603516,69.79210662841797,48.43535232543945,-7.95992851257324,1.97576344013214,-2.53445553779602,74.52368164062500,-25.83027839660645,32.16975021362305
297,698278409,125.29152679443359,69.65042114257812,47.43626403808594,-8.40097999572754,2.03904581069946,-2.70986628532410,76.36321258544922,-27.67209243774414,34.71417236328125
298,698286742,124.91893005371094,69.52724456787109,46.31985092163086,-8.96910476684570,2.40341234207153,-2.33140349388123,80.16222381591797,-29.93709564208984,36.97377014160156
299,698295075,124.56757354736328,69.38724517822266,45.19252395629883,-9.30308246612549,2.46367073059082,-1.91126632690430,82.69423675537109,-33.11487197875977,37.82776260375977
300,698303408,124.19567871093750,69.27620697021484,44.04451751708984,-9.20941638946533,2.37760972976685,-1.89851379394531,83.58228302001953,-32.82729339599609,36.45713043212891
301,698311741,123.95115661621094,69.14087677001953,43.01453781127930,-9.19472980499268,2.43720579147339,-1.98105823993683,84.36752319335938,-30.80629158020020,35.20317459106445
302,698320074,123.65656280517578,69.03504180908203,41.94168090820312,-9.14581966400146,2.29138445854187,-2.19178771972656,84.21984863281250,-31.33834648132324,34.12177658081055
303,698328407,123.46194458007812,68.90587615966797,40.95599746704102,-8.93615055084229,2.14409184455872,-2.49322128295898,85.18466949462891,-30.28436660766602,33.76428222656250
304,698336740,123.24554443359375,68.78662109375000,39.93927383422852,-8.84054374694824,2.18852829933167,-2.29812288284302,87.13114166259766,-29.12903213500977,34.16302871704102
305,698345073,123.10247802734375,68.64765167236328,38.99060058593750,-8.75203990936279,2.01704001426697,-2.26835989952087,86.98233795166016,-28.92101860046387,34.17322158813477
306,698353406,122.90272521972656,68.52738189697266,37.96660614013672,-8.69913387298584,1.71011221408844,-2.59212303161621,89.73970794677734,-29.98628997802734,34.53783416748047
307,698361739,122.84592437744141,68.38282012939453,37.05047607421875,-8.50440311431885,1.59847986698151,-2.82061815261841,93.43669128417969,-27.93448066711426,34.35837173461914
308,698370072,122.71430969238281,68.24592590332031,36.03341674804688,-8.35937690734863,1.75625383853912,-2.58564853668213,96.92589569091797,-29.24860191345215,36.22784805297852
309,698378405,122.63058471679688,68.09468078613281,35.02485656738281,-8.24916076660156,1.22780561447144,-2.45881414413452,100.20819091796875,-31.56013298034668,37.72932434082031
310,698386738,122.48236846923828,67.94059753417969,33.91241455078125,-8.14904308319092,0.71918815374374,-2.58647251129150,105.31156158447266,-32.39786529541016,40.46958541870117
311,698395071,122.48323059082031,67.73944854736328,32.87037658691406,-8.06957054138184,0.42039060592651,-2.94023442268372,113.70952606201172,-30.28994560241699,44.24852371215820
312,698403404,122.43805694580078,67.51521301269531,31.73785400390625,-8.37831401824951,0.43599256873131,-2.61091089248657,119.56201171875000,-29.43313217163086,48.46522521972656
313,698411737,122.53871917724609,67.24480438232422,30.70283126831055,-8.28636169433594,0.38585278391838,-2.41942548751831,124.37640380859375,-26.33894348144531,52.07405471801758
314,698420070,122.67354583740234,66.94094848632812,29.66602897644043,-8.74920177459717,0.88525831699371,-2.73848104476929,130.08964538574219,-21.38227844238281,54.80447387695312
315,698428403,122.89465332031250,66.61627197265625,28.65065002441406,-9.35815334320068,1.22140133380890,-2.65857315063477,136.02992248535156,-22.69450378417969,58.28448486328125
316,698436736,123.07826232910156,66.28220367431641,27.56705856323242,-9.46995735168457,1.23258244991302,-2.64532756805420,140.53829956054688,-21.99453353881836,59.90347290039062
317,698445069,123.33399963378906,65.94612884521484,26.50005531311035,-10.03874015808105,1.89929282665253,-2.25663018226624,145.17726135253906,-24.56506538391113,62.08096313476562
318,698453402,123.51887512207031,65.64900970458984,25.33694839477539,-9.65104484558105,1.91024410724640,-2.50886988639832,148.79881286621094,-28.35500526428223,59.26984024047852
319,698461735,123.88289642333984,65.35728454589844,24.31463050842285,-9.17421531677246,2.18550348281860,-3.39418530464172,152.67683410644531,-25.95204162597656,57.63344955444336
320,698470068,124.05651092529297,65.06103515625000,23.07579803466797,-9.83612823486328,2.64155292510986,-2.59597492218018,155.09819030761719,-32.07647323608398,62.30136489868164
321,698478401,124.27593231201172,64.80525970458984,21.84613800048828,-9.08083724975586,1.81703007221222,-3.16145205497742,157.29496765136719,-37.40373611450195,61.03844451904297
322,698486734,124.42771911621094,64.54091644287109,20.52166938781738,-9.23787021636963,1.40934443473816,-3.54720115661621,161.17498779296875,-38.48053359985352,62.54306793212891
323,698495067,124.70917510986328,64.27039337158203,19.29293823242188,-9.56186580657959,1.32973134517670,-3.15016126632690,163.94471740722656,-36.84263992309570,63.74694061279297
324,698503400,124.88536834716797,64.01078796386719,17.93637466430664,-9.92555236816406,1.25319921970367,-3.98943972587585,166.93283081054688,-40.78245162963867,64.08982849121094
325,698511733,125.06744384765625,63.76880645751953,16.52688407897949,-10.38727188110352,1.81666994094849,-4.19304418563843,170.79048156738281,-47.02376937866211,67.76100921630859
326,698520066,125.13357543945312,63.51452255249023,14.97324371337891,-10.87430095672607,1.93403708934784,-3.85796856880188,174.28773498535156,-50.43563079833984,70.54810333251953
327,698528399,125.23956298828125,63.29264450073242,13.40291118621826,-11.17047691345215,1.83737409114838,-4.11508846282959,178.16246032714844,-56.14111328125000,72.05401611328125
328,698536732,125.20432281494141,63.07498931884766,11.64091682434082,-11.20244693756104,1.62792849540710,-4.23652267456055,183.76654052734375,-63.12497711181641,74.33574676513672
329,698545065,125.27068328857422,62.88173294067383,9.88755512237549,-11.12263584136963,1.26104593276978,-4.54690933227539,192.23330688476562,-67.03451538085938,76.21853637695312
330,698553398,125.24228668212891,62.65844726562500,7.95458173751831,-11.13235759735107,1.23065018653870,-4.56778955459595,202.13661193847656,-71.47230529785156,81.12818908691406
331,698561731,125.29705047607422,62.44444656372070,6.06830310821533,-10.90586185455322,1.56446576118469,-4.36136722564697,204.14012145996094,-72.50317382812500,83.83425903320312
332,698570064,125.23347473144531,62.18589019775391,4.03522062301636,-11.45818424224854,1.18710839748383,-4.56453323364258,207.70085144042969,-74.91304779052734,88.76051330566406
333,698578397,125.27398681640625,61.93922805786133,2.04358100891113,-11.40328788757324,1.18701529502869,-5.05720329284668,212.59173583984375,-76.23946380615234,91.89430236816406
334,698586730,125.37966918945312,61.66356277465820,0.10611581057310,-11.21545505523682,0.38348773121834,-6.34333848953247,216.87197875976562,-70.78718566894531,88.49918365478516
335,698595063,125.63877868652344,61.38388824462891,-1.76780068874359,-12.39202404022217,0.62213587760925,-6.37526845932007,225.13087463378906,-69.51580810546875,93.22145080566406
336,698603396,125.72273254394531,61.07878112792969,-3.81841683387756,-13.66639423370361,1.93282341957092,-5.41254472732544,225.06071472167969,-75.13394927978516,96.79775238037109
337,698611729,125.85586547851562,60.86426162719727,-5.81558513641357,-14.42931842803955,1.37869536876678,-6.37476634979248,221.72143554687500,-80.73790740966797,93.07645416259766
338,698620062,125.92847442626953,60.66694259643555,-7.95944070816040,-14.34835147857666,0.78749328851700,-7.31269359588623,232.48756408691406,-88.20400238037109,90.82238769531250
339,698628395,126.05345153808594,60.55451965332031,-10.17671108245850,-13.81021118164062,1.12975370883942,-7.83915948867798,242.81571960449219,-98.91014099121094,92.47506713867188
340,698636728,126.16643524169922,60.40436172485352,-12.51170635223389,-13.48848819732666,0.87817585468292,-8.78023910522461,256.66232299804688,-101.22683715820312,93.90600585937500
341,698645061,126.35890960693359,60.29403686523438,-14.83165359497070,-14.11336708068848,1.63879644870758,-8.09696578979492,260.76861572265625,-104.25503540039062,97.55287170410156
342,698653394,126.55265808105469,60.15189361572266,-17.18383789062500,-13.94293594360352,0.38699570298195,-9.11662101745605,267.51773071289062,-102.92785644531250,94.99382019042969
343,698661727,126.86370086669922,60.04137802124023,-19.53191757202148,-14.84121417999268,1.57868421077728,-8.79215049743652,277.08056640625000,-105.50112152099609,100.59838867187500
344,698670060,127.09487915039062,59.86342620849609,-21.98587989807129,-15.56126976013184,1.95323228836060,-9.57099914550781,281.90719604492188,-105.27153778076172,103.72590637207031
345,698678393,127.33226776123047,59.67370986938477,-24.48816108703613,-16.54197883605957,2.67141032218933,-10.08359813690186,287.20651245117188,-106.93817138671875,107.54630279541016
346,698686726,127.69158935546875,59.52615737915039,-26.93148803710938,-16.79676246643066,3.27644252777100,-10.37645626068115,291.42456054687500,-107.01026916503906,110.96436309814453
347,698695059,128.09078979492188,59.36188507080078,-29.32989120483398,-16.60764694213867,4.17060136795044,-10.03288745880127,290.88729858398438,-103.53692626953125,112.36311340332031
348,698703392,128.44262695312500,59.13652420043945,-31.73538398742676,-16.41562271118164,4.93595790863037,-9.48635005950928,289.55493164062500,-99.48034667968750,110.60565185546875
349,698711725,128.97253417968750,58.94332504272461,-33.94121932983398,-14.83486080169678,4.34021615982056,-9.06608390808105,289.84738159179688,-92.08300781250000,101.22255706787109
350,698720058,129.69059753417969,58.83644485473633,-35.99345397949219,-13.97933006286621,3.86106419563293,-6.96665811538696,292.24539184570312,-89.62673187255859,97.68952941894531
351,698728391,130.25437927246094,58.78707504272461,-38.09776687622070,-14.39787769317627,3.17806720733643,-7.07405042648315,278.85101318359375,-95.61965942382812,95.71632385253906
352,698736724,129.97392272949219,58.89876937866211,-40.77921676635742,-16.02157020568848,3.37985801696777,-9.26231193542480,240.95402526855469,-136.31832885742188,94.96777343750000
353,698745057,129.04743957519531,59.30116653442383,-43.92013549804688,-15.46865749359131,4.29769277572632,-13.26072978973389,211.50376892089844,-180.37275695800781,83.86338043212891
354,698753390,129.09254455566406,59.74634170532227,-46.35524368286133,-9.80562496185303,3.44778966903687,-9.73937606811523,252.81352233886719,-147.16569519042969,59.31962585449219
355,698761723,129.74502563476562,60.07342529296875,-48.13546752929688,-4.25411033630371,2.33659195899963,-6.68721294403076,258.50463867187500,-106.55606842041016,45.02326202392578
356,698770056,130.49560546875000,60.26390838623047,-49.73614883422852,-1.22583568096161,-0.26500430703163,-10.86178588867188,255.94328308105469,-88.17906188964844,42.03408813476562
357,698778389,131.42462158203125,60.36455535888672,-51.21853637695312,0.16964003443718,-0.68536633253098,-12.12449073791504,265.27249145507812,-74.80107116699219,46.58539581298828
358,698786722,132.44636535644531,60.46375274658203,-52.53646469116211,1.69197523593903,0.03662116825581,-10.09635639190674,255.54707336425781,-64.82174682617188,50.32772064208984
359,698795055,133.53193664550781,60.47867584228516,-53.74322128295898,3.28367447853088,0.87668615579605,-8.23204612731934,251.29777526855469,-53.23329544067383,54.07140350341797
360,698803388,134.60098266601562,60.39501190185547,-55.05971908569336,3.49691176414490,1.91720950603485,-7.49736499786377,264.93490600585938,-49.41621780395508,59.34354782104492
361,698811721,135.67944335937500,60.30052947998047,-56.52396774291992,3.31602406501770,3.67738080024719,-7.28663492202759,281.36325073242188,-53.65433120727539,67.56245422363281
362,698820054,136.82226562500000,60.22080230712891,-57.99639892578125,3.61015224456787,5.54165935516357,-6.81022500991821,285.63119506835938,-53.50946426391602,76.06788635253906
363,698828387,137.76611328125000,60.08602905273438,-59.57818984985352,2.98164749145508,7.60178518295288,-5.04856014251709,273.13177490234375,-52.62352371215820,85.66674804687500
364,698836720,138.28050231933594,59.92715072631836,-61.47169494628906,2.01042079925537,8.80101203918457,-3.57245373725891,257.74819946289062,-62.20095443725586,95.09329223632812
365,698845053,138.50749206542969,59.79919433593750,-63.55323028564453,1.83269119262695,8.94429111480713,-2.88666772842407,242.49595642089844,-72.17888641357422,101.89336395263672
366,698853386,138.61396789550781,59.69980239868164,-65.64807128906250,1.70888745784760,8.40597629547119,-2.53883719444275,225.76887512207031,-75.05456542968750,106.96696472167969
367,698861719,138.45382690429688,59.58568954467773,-67.91956329345703,0.87613457441330,7.36662197113037,-1.86189317703247,212.39385986328125,-81.31189727783203,115.29549407958984
368,698870052,137.94268798828125,59.47772598266602,-70.47142028808594,-0.09527457505465,6.27648496627808,-0.91017681360245,201.83665466308594,-94.24282836914062,122.27358245849609
369,698878385,137.22494506835938,59.41330337524414,-73.19845581054688,-0.90963685512543,4.81570386886597,-0.35388442873955,194.91357421875000,-106.89430236816406,125.93333435058594
370,698886718,136.43750000000000,59.43904495239258,-75.99997711181641,-1.57283496856689,2.49681615829468,-0.34644269943237,191.98803710937500,-119.23931121826172,124.78922271728516
371,698895051,135.64442443847656,59.50328445434570,-78.85607147216797,-1.61199951171875,0.21626247465611,-0.94839149713516,197.40394592285156,-126.23007965087891,121.73675537109375
372,698903384,134.88232421875000,59.59590148925781,-81.78974151611328,-1.27184855937958,-1.60058069229126,-1.84699833393097,211.26696777343750,-133.87113952636719,116.79142761230469
373,698911717,134.16392517089844,59.70567703247070,-84.80698394775391,-0.57615774869919,-2.29992580413818,-2.72120475769043,225.48098754882812,-140.06439208984375,116.78104400634766
374,698920050,133.59379577636719,59.87166213989258,-87.83797454833984,-0.68123972415924,-2.16435074806213,-3.92156481742859,243.48042297363281,-145.20944213867188,114.30711364746094
375,698928383,133.13786315917969,60.01084899902344,-90.87670135498047,-0.56646579504013,-1.10495960712433,-5.67063760757446,258.35568237304688,-143.90699768066406,115.23239898681641
376,698936716,132.85910034179688,60.00306320190430,-93.88594818115234,-1.15928101539612,0.94555985927582,-6.66519260406494,278.53585815429688,-131.79699707031250,121.66246032714844
377,698945049,132.68888854980469,59.90327835083008,-96.82595825195312,-2.68108558654785,3.49974107742310,-6.54596710205078,284.19726562500000,-121.94438171386719,126.63684844970703
378,698953382,132.69058227539062,59.76042556762695,-99.58448791503906,-4.66884231567383,5.64956092834473,-6.37790632247925,283.91699218750000,-110.37941741943359,127.27661895751953
379,698961715,132.73449707031250,59.58258819580078,-102.30795288085938,-8.10786247253418,7.79652547836304,-5.63804006576538,284.96011352539062,-106.86614227294922,129.11810302734375
380,698970048,132.61451721191406,59.41178131103516,-105.13521575927734,-10.53029060363770,9.59844684600830,-4.67050361633301,277.15469360351562,-113.12957763671875,129.65602111816406
381,698978381,132.33232116699219,59.28739547729492,-108.01117706298828,-11.62094497680664,10.32360839843750,-3.75227141380310,262.26739501953125,-120.10134887695312,127.68263244628906
382,698986714,132.01557922363281,59.21160125732422,-110.86907958984375,-11.71129798889160,10.59216690063477,-4.23837375640869,254.72657775878906,-123.62509918212891,125.39719390869141
383,698995047,131.54493713378906,59.16413879394531,-113.68560791015625,-11.25210666656494,10.23735237121582,-3.70442628860474,232.16592407226562,-124.91298675537109,119.91134643554688
384,699003380,130.94148254394531,59.11007690429688,-116.51210021972656,-10.88209438323975,8.85077381134033,-3.81100654602051,217.97042846679688,-126.95972442626953,117.43544769287109
385,699011713,130.21463012695312,59.10345077514648,-119.39160919189453,-10.98646926879883,8.78470325469971,-2.18910884857178,208.52937316894531,-134.63812255859375,113.87052154541016
386,699020046,129.27636718750000,59.17633056640625,-122.29438781738281,-10.74092769622803,7.80983257293701,-1.33676981925964,185.20021057128906,-142.30406188964844,107.24939727783203
387,699028379,128.27014160156250,59.28546142578125,-125.19213867187500,-10.65069675445557,6.67694902420044,-1.53103494644165,177.26957702636719,-147.29376220703125,99.05202484130859
388,699036712,127.33363342285156,59.43875885009766,-127.97482299804688,-10.38732337951660,6.19552564620972,-1.82987082004547,174.03457641601562,-144.75469970703125,89.06652832031250
389,699045045,126.53949737548828,59.57874298095703,-130.52513122558594,-10.23010540008545,5.75690555572510,-2.54056739807129,167.65135192871094,-134.61973571777344,77.74667358398438
390,699053378,125.88474273681641,59.73622894287109,-132.86198425292969,-10.35587692260742,5.42214345932007,-3.22183513641357,162.77568054199219,-124.24014282226562,67.47396850585938
391,699061711,125.34600830078125,59.88845825195312,-135.02836608886719,-10.27771568298340,5.25393581390381,-3.47169089317322,159.47552490234375,-115.62319183349609,60.15939712524414
392,699070044,124.93310546875000,60.01858139038086,-137.01658630371094,-9.96647357940674,4.63432455062866,-4.27211809158325,156.20056152343750,-107.09433746337891,53.83411407470703
393,699078377,124.63282775878906,60.14854431152344,-138.96635437011719,-9.74834060668945,4.43494844436646,-4.74536895751953,166.21908569335938,-103.51029205322266,52.51509857177734
394,699086710,124.41716003417969,60.25277328491211,-140.85157775878906,-9.20436954498291,4.12407922744751,-5.16161584854126,169.65704345703125,-100.13180541992188,51.26066207885742
395,699095043,124.24526977539062,60.33502197265625,-142.74385070800781,-9.02568721771240,4.79529094696045,-4.14363431930542,176.02673339843750,-97.44774627685547,53.97133636474609
396,699103376,124.08663177490234,60.38184356689453,-144.55755615234375,-8.70841503143311,4.57753515243530,-3.44586706161499,169.35450744628906,-92.63783264160156,53.64573287963867
397,699111709,123.95300292968750,60.43248367309570,-146.34887695312500,-8.35445785522461,4.59271717071533,-3.37829589843750,170.33229064941406,-90.44541931152344,52.86498641967773
398,699120042,123.88270568847656,60.45536422729492,-148.04156494140625,-7.63600873947144,4.27218675613403,-3.61977577209473,167.47630310058594,-85.09647369384766,51.47198867797852
399,699128375,123.86293029785156,60.46551513671875,-149.69720458984375,-7.20630693435669,4.06040334701538,-4.61532211303711,169.95578002929688,-81.16962432861328,51.94641876220703
400,699136708,123.83541870117188,60.43865585327148,-151.38667297363281,-7.20250320434570,4.11373615264893,-4.72030925750732,172.29196166992188,-81.66024780273438,56.20742797851562
401,699145041,123.77645874023438,60.41306304931641,-153.11770629882812,-7.37279224395752,3.69598793983459,-4.97475910186768,173.02169799804688,-82.88353729248047,57.81114578247070
402,699153374,123.94029998779297,60.34170913696289,-154.72183227539062,-6.90946245193481,3.69306135177612,-6.03686952590942,186.21954345703125,-74.66465759277344,57.95916748046875
403,699161707,124.17699432373047,60.21521377563477,-156.28445434570312,-7.57740545272827,4.82440376281738,-4.99479389190674,190.60409545898438,-68.24507141113281,62.76651763916016
404,699170040,124.38823699951172,60.08758544921875,-157.87237548828125,-8.29765319824219,4.86512994766235,-4.24143028259277,189.84086608886719,-70.15775299072266,63.91389083862305
405,699178373,124.57630157470703,59.98163604736328,-159.52014160156250,-8.66135311126709,5.31513357162476,-3.45870542526245,193.20677185058594,-74.14138031005859,64.38223266601562
406,699186706,124.80733489990234,59.87701797485352,-161.13471984863281,-8.41232776641846,5.75931358337402,-3.80473136901855,194.62060546875000,-73.10231018066406,63.41841125488281
407,699195039,125.03378295898438,59.75304412841797,-162.73657226562500,-8.57629585266113,6.66850757598877,-3.68006515502930,192.69244384765625,-70.74066162109375,65.34814453125000
408,699203372,125.23859405517578,59.61919784545898,-164.34823608398438,-8.80903625488281,7.03692817687988,-4.15821123123169,190.75103759765625,-71.00928497314453,67.15227508544922
409,699211705,125.31620025634766,59.49620819091797,-166.03039550781250,-9.26988410949707,7.48842954635620,-3.75925683975220,182.74917602539062,-75.09484863281250,68.67932891845703
410,699220038,125.26972961425781,59.40993499755859,-167.76879882812500,-9.16395473480225,6.88259553909302,-3.93390727043152,173.30432128906250,-80.97997283935547,67.54593658447266
411,699228371,125.20295715332031,59.33969879150391,-169.51313781738281,-8.77111816406250,6.47952413558960,-4.19996976852417,171.55854797363281,-82.44641876220703,65.71311187744141
412,699236704,125.15379333496094,59.28216934204102,-171.18322753906250,-9.22476196289062,6.92082881927490,-3.34354400634766,165.66036987304688,-80.05228424072266,62.41182327270508
413,699245037,125.11733245849609,59.27018356323242,-172.74247741699219,-9.15997791290283,5.76589584350586,-3.77488684654236,155.94927978515625,-77.66207885742188,53.29861068725586
414,699253370,125.11615753173828,59.29912948608398,-174.29544067382812,-9.25456237792969,5.29176521301270,-3.69853091239929,159.28845214843750,-80.28280639648438,49.75448989868164
415,699261703,125.15933990478516,59.35903167724609,-175.76289367675781,-9.01074600219727,4.59227228164673,-3.91882705688477,156.10479736328125,-78.00489807128906,42.84458541870117
416,699270036,125.23219299316406,59.46432495117188,-177.21562194824219,-8.76908493041992,4.37887382507324,-3.84143066406250,158.02601623535156,-80.20010375976562,38.64647293090820
417,699278369,125.41172790527344,59.56790924072266,-178.56544494628906,-8.21386241912842,4.20552539825439,-4.59812450408936,160.54788208007812,-74.76004028320312,34.39331817626953
418,699286702,125.60779571533203,59.65917587280273,-179.91279602050781,-8.64446735382080,5.28552198410034,-3.77981519699097,162.21890258789062,-73.35988616943359,36.43316268920898
419,699295035,125.81525421142578,59.76239395141602,178.82841491699219,-8.40243244171143,4.68747091293335,-4.26096057891846,154.69500732421875,-69.77748107910156,31.40392875671387
420,699303368,126.01484680175781,59.89349746704102,177.48156738281250,-8.39940071105957,4.67369031906128,-4.28747653961182,162.89253234863281,-75.44422149658203,32.75139617919922
421,699311701,126.22456359863281,60.01902389526367,176.14993286132812,-8.36157131195068,4.81775474548340,-4.53257799148560,162.80531311035156,-74.35305786132812,31.95817184448242
422,699320034,126.45526885986328,60.17314147949219,174.82792663574219,-8.68538570404053,4.66616535186768,-4.54968261718750,164.42324829101562,-75.09378814697266,29.81536483764648
423,699328367,126.74724578857422,60.36721420288086,173.57830810546875,-8.44534397125244,3.85362315177917,-5.32452678680420,164.51348876953125,-74.61033630371094,22.59397697448730
424,699336700,127.09214782714844,60.55422973632812,172.27624511718750,-8.50286388397217,4.61809158325195,-5.28838253021240,176.54400634765625,-75.49332427978516,26.18040657043457
425,699345033,127.42947387695312,60.75540924072266,171.01206970214844,-9.12133216857910,5.00330829620361,-4.84592914581299,171.88407897949219,-75.05866241455078,22.77840423583984
426,699353366,127.78274536132812,61.04110717773438,169.75599670410156,-8.72664737701416,3.73818516731262,-5.69783353805542,173.30780029296875,-79.42744445800781,15.42288017272949
427,699361699,128.15679931640625,61.34320831298828,168.44404602050781,-8.51363086700439,4.51989603042603,-5.54815340042114,181.93020629882812,-83.60233306884766,15.12264537811279
428,699370032,128.57646179199219,61.65178680419922,167.19616699218750,-8.50865650177002,4.43880653381348,-5.93077230453491,181.17187500000000,-79.44087219238281,13.17267799377441
429,699378365,129.00624084472656,61.95695495605469,165.92237854003906,-8.94439411163330,4.24482917785645,-6.27705574035645,185.29776000976562,-80.99958038330078,13.75221633911133
430,699386698,129.39456176757812,62.30109405517578,164.59587097167969,-9.20458793640137,4.14959430694580,-6.49741315841675,186.53198242187500,-84.19844818115234,12.88325786590576
431,699395031,129.75367736816406,62.65774536132812,163.18765258789062,-9.43459987640381,3.81340241432190,-6.56635284423828,191.86479187011719,-89.52293395996094,13.89038276672363
432,699403364,130.09996032714844,63.05965423583984,161.71876525878906,-9.80792331695557,3.46866750717163,-6.53498172760010,197.62655639648438,-93.04653930664062,12.48254776000977
433,699411697,130.49446105957031,63.46277999877930,160.25184631347656,-10.01056385040283,3.20093750953674,-6.73160409927368,203.34240722656250,-94.06209564208984,11.61821079254150
434,699420030,130.89489746093750,63.89183807373047,158.77070617675781,-10.44217205047607,2.83892011642456,-7.23081445693970,206.57505798339844,-93.75683593750000,10.21155261993408
435,699428363,131.37284851074219,64.33911132812500,157.31901550292969,-10.73843383789062,2.22416591644287,-8.62016868591309,212.75625610351562,-95.26066589355469,7.13872194290161
436,699436696,131.83456420898438,64.83000183105469,155.78309631347656,-11.28040695190430,2.17341685295105,-9.35681343078613,221.09602355957031,-98.68972778320312,6.34059381484985
437,699445029,132.33050537109375,65.33740234375000,154.21040344238281,-11.42877388000488,1.94395482540131,-10.13673877716064,229.18591308593750,-102.94054412841797,5.99321937561035
438,699453362,132.73513793945312,65.88609313964844,152.45643615722656,-12.24794673919678,2.65371012687683,-10.64018154144287,239.47012329101562,-108.98043060302734,8.10437774658203
439,699461695,133.01573181152344,66.45330810546875,150.53028869628906,-12.65149688720703,3.13182091712952,-10.91248989105225,243.44851684570312,-118.38021087646484,11.97606945037842
440,699470028,133.05021667480469,67.04857635498047,148.30766296386719,-12.81834030151367,3.08083987236023,-11.49487018585205,248.41326904296875,-126.12456512451172,17.50963401794434
441,699478361,133.07484436035156,67.59934234619141,146.02766418457031,-12.46306419372559,3.54544949531555,-11.63084030151367,253.59274291992188,-126.35481262207031,22.44929695129395
442,699486694,133.04557800292969,68.09260559082031,143.62425231933594,-12.31711292266846,4.68095207214355,-10.81962013244629,262.82681274414062,-120.30117797851562,28.89423370361328
443,699495027,132.99963378906250,68.50822448730469,141.19905090332031,-12.06167984008789,5.38713359832764,-10.92884063720703,264.10629272460938,-113.11906433105469,34.82540130615234
444,699503360,132.81143188476562,68.92378997802734,138.59440612792969,-11.85773181915283,6.31948566436768,-10.41852378845215,266.69558715820312,-121.67201995849609,39.96574020385742
445,699511693,132.04238891601562,69.44084930419922,135.49777221679688,-12.38283061981201,7.27749824523926,-9.90183544158936,252.98870849609375,-144.47064208984375,42.55177688598633
446,699520026,130.20953369140625,70.17652893066406,131.37751770019531,-12.56459617614746,7.47131156921387,-10.16983699798584,243.33753967285156,-186.99369812011719,43.66016387939453
447,699528359,127.74459075927734,71.06210327148438,126.58176422119141,-11.01926326751709,7.53502464294434,-10.31103706359863,246.33544921875000,-215.65689086914062,35.42884445190430
448,699536692,124.90406799316406,71.99856567382812,121.21170806884766,-9.63495826721191,8.72915077209473,-7.22940921783447,268.28012084960938,-236.42506408691406,30.04481124877930
449,699545025,120.89406585693359,73.02352905273438,114.48600769042969,-8.71330165863037,8.38253593444824,-2.22069358825684,286.47738647460938,-276.17700195312500,27.97512245178223
450,699553358,116.14421081542969,74.03633880615234,106.96949005126953,-4.64075088500977,5.30319452285767,-3.32803654670715,294.29803466796875,-282.91784667968750,13.35906982421875
451,699561691,111.75582885742188,74.84941864013672,99.89759826660156,-2.57014465332031,4.15804433822632,-6.18505573272705,290.21267700195312,-247.87117004394531,1.22210931777954
452,699570024,107.34444427490234,75.52388763427734,92.81851196289062,-2.14169716835022,2.83261251449585,-3.95705437660217,289.93283081054688,-237.37631225585938,-3.69803953170776
453,699578357,103.91835784912109,76.08950042724609,86.80081939697266,0.04450274258852,1.13270103931427,-7.26878499984741,286.92465209960938,-194.75608825683594,-17.78473854064941
454,699586690,100.77317047119141,76.48757171630859,81.14189147949219,-0.62361097335815,2.66628623008728,-7.20404958724976,281.52954101562500,-167.83319091796875,-14.28506755828857
455,699595023,97.40802001953125,76.72763824462891,75.27936553955078,-0.96452587842941,3.59054541587830,-4.90799140930176,279.79003906250000,-165.82418823242188,-4.77574539184570
456,699603356,94.70282745361328,76.87185668945312,70.07955932617188,-1.12339568138123,3.25623774528503,-4.22153520584106,280.86718750000000,-149.81800842285156,-1.67223370075226
457,699611689,92.25166320800781,76.94381713867188,65.15728759765625,-1.70999360084534,3.13284802436829,-1.88889837265015,279.11492919921875,-140.59367370605469,-0.04294595867395
458,699620022,89.79631805419922,76.95494079589844,60.27309417724609,-1.62191390991211,2.57605838775635,-1.09872078895569,275.54119873046875,-132.77250671386719,-1.04372513294220
459,699628355,87.71621704101562,76.92990875244141,55.80349349975586,-1.49996531009674,2.05854368209839,-1.98430037498474,272.08926391601562,-121.63301086425781,-1.71253526210785
460,699636688,86.26781463623047,76.88780212402344,51.97666549682617,-1.62093555927277,1.86970460414886,-3.06632351875305,271.51327514648438,-110.39677429199219,0.61322557926178
461,699645021,85.14834594726562,76.76434326171875,48.44033813476562,-2.66972732543945,3.09386301040649,-3.48653435707092,276.87167358398438,-103.83142852783203,8.62244319915771
462,699653354,83.92972564697266,76.49197387695312,44.76469802856445,-4.38606166839600,4.98275375366211,-2.08444809913635,282.09249877929688,-105.09806823730469,20.75969696044922
463,699661687,82.87335205078125,76.12157440185547,41.27535629272461,-5.71041822433472,6.48749351501465,-0.59192150831223,279.26699829101562,-104.00674438476562,30.67795181274414
464,699670020,82.19622802734375,75.71272277832031,38.24502944946289,-6.48402309417725,7.39807462692261,-0.06164678186178,269.45886230468750,-100.15644073486328,38.69478607177734
465,699678353,81.61847686767578,75.23307800292969,35.45086288452148,-6.98217630386353,6.99823427200317,0.16247859597206,253.20410156250000,-97.26171875000000,46.39034652709961
466,699686686,81.08117675781250,74.71366882324219,32.84405899047852,-7.30602359771729,5.68650913238525,-0.62436145544052,236.83938598632812,-90.01316833496094,47.36653900146484
467,699695019,80.74976348876953,74.21775817871094,30.47694969177246,-7.77627611160278,4.41210699081421,-0.97534900903702,233.11395263671875,-84.96521759033203,44.68298721313477
468,699703352,80.60127258300781,73.80088806152344,28.30090522766113,-8.47847270965576,3.75505685806274,-0.28217446804047,231.11245727539062,-84.60836029052734,39.12961196899414
469,699711685,80.36154174804688,73.40263366699219,26.07659912109375,-9.31633472442627,3.69332456588745,0.49256914854050,225.17936706542969,-87.63431549072266,36.07021331787109
470,699720018,79.93721771240234,72.98486328125000,23.72942733764648,-9.83283805847168,3.86250257492065,0.78369349241257,217.90521240234375,-89.28381347656250,33.41529464721680
471,699728351,79.33853912353516,72.56829833984375,21.30411529541016,-10.49168014526367,3.84379696846008,0.86802649497986,205.34455871582031,-94.21695709228516,31.61649894714355
472,699736684,79.09767913818359,72.22254180908203,19.30774307250977,-9.65948486328125,3.71956968307495,-0.35869026184082,197.39759826660156,-83.94379425048828,28.96944808959961
473,699745017,78.94442749023438,71.91032409667969,17.50725173950195,-10.23175811767578,5.24528217315674,0.03492785245180,185.15768432617188,-77.30683135986328,25.91478919982910
474,699753350,78.08358001708984,71.48751068115234,15.17277908325195,-11.52661418914795,4.57705211639404,0.55034542083740,161.85687255859375,-96.78224945068359,30.16711807250977
475,699761683,77.53998565673828,71.05606079101562,13.14590740203857,-9.93523406982422,2.70916819572449,-0.96796947717667,164.30784606933594,-87.73024749755859,32.07312011718750
476,699770016,77.66035461425781,70.72009277343750,11.75190162658691,-10.24363517761230,4.53750705718994,-1.15194070339203,170.55366516113281,-66.70886230468750,29.61585807800293
477,699778349,77.44362640380859,70.33795166015625,10.15392684936523,-10.90956687927246,5.88671636581421,0.45984086394310,152.79280090332031,-76.85311889648438,33.02604293823242
478,699786682,77.15228271484375,69.88797760009766,8.56426811218262,-9.94097805023193,5.33877277374268,0.80957078933716,143.60275268554688,-75.65968322753906,36.38067245483398
479,699795015,77.07836151123047,69.47749328613281,7.22650671005249,-10.17363739013672,5.36366653442383,0.22013023495674,140.85903930664062,-65.79306793212891,33.54841613769531
480,699803348,77.05743408203125,69.13750457763672,6.02754020690918,-10.18034267425537,5.23288297653198,-0.10359537601471,130.13760375976562,-62.95155334472656,30.49539756774902
481,699811681,76.93256378173828,68.79745483398438,4.78049850463867,-10.60401439666748,4.89154005050659,0.39189854264259,122.73523712158203,-65.72482299804688,29.66966247558594
482,699820014,76.78374481201172,68.45282745361328,3.56022453308105,-10.21202754974365,3.66035389900208,0.17822477221489,117.67900848388672,-61.86773681640625,26.11771011352539
483,699828347,76.69551849365234,68.15069580078125,2.45836901664734,-10.04120635986328,3.14849877357483,-0.13395054638386,111.44863891601562,-56.38078308105469,22.04695892333984
484,699836680,76.65145874023438,67.90798187255859,1.43334698677063,-10.05642318725586,2.82968878746033,-0.32048073410988,106.85504913330078,-55.51166534423828,19.87000465393066
485,699845013,76.54804992675781,67.65695190429688,0.36282598972321,-10.31397438049316,2.75228857994080,-0.07600266486406,104.59622955322266,-58.23411178588867,20.27335548400879
486,699853346,76.40076446533203,67.35848236083984,-0.71805763244629,-9.86730098724365,2.26903605461121,-0.32988625764847,101.33661651611328,-57.12182998657227,21.19974136352539
487,699861679,76.25573730468750,67.01950073242188,-1.80315732955933,-10.26911354064941,2.59142351150513,-0.38183552026749,101.80412292480469,-59.15924835205078,25.57175254821777
488,699870012,76.15763854980469,66.69349670410156,-2.86902546882629,-9.80472278594971,2.46758008003235,-0.13209104537964,103.97366333007812,-62.01505661010742,28.50655746459961
489,699878345,76.14023590087891,66.36217498779297,-3.85887169837952,-10.32873821258545,3.93922114372253,-0.02162783779204,105.00590515136719,-59.30656814575195,29.91341400146484
490,699886678,75.71598052978516,65.89385986328125,-5.21466922760010,-11.18852996826172,3.39710021018982,0.82026129961014,97.04199981689453,-78.04302978515625,36.49781799316406
491,699895011,75.55505371093750,65.52639770507812,-6.31268358230591,-9.92166519165039,2.52949929237366,-0.61488252878189,98.97686004638672,-67.18185424804688,32.04347229003906
492,699903344,75.56491088867188,65.16819763183594,-7.19722986221313,-10.01235389709473,3.08915114402771,-1.37719309329987,96.81678771972656,-54.10807418823242,28.57942008972168
493,699911677,75.56390380859375,64.85890197753906,-8.04351139068604,-9.81488513946533,2.87601947784424,-1.40754580497742,90.11185455322266,-54.53307342529297,28.22330665588379
494,699920010,75.44301605224609,64.47151184082031,-9.01975536346436,-10.24668788909912,3.00571823120117,-0.54421567916870,90.53578948974609,-60.68730545043945,30.45196533203125
495,699928343,75.36599731445312,64.14100646972656,-9.97361755371094,-10.02256774902344,2.24142670631409,0.23541364073753,92.07917785644531,-61.76064682006836,29.02514266967773
496,699936676,75.20003509521484,63.76317596435547,-11.04082870483398,-11.29223918914795,2.42993593215942,1.42527472972870,94.30656433105469,-66.43355560302734,27.56667900085449
497,699945009,74.93789672851562,63.47163009643555,-12.19872951507568,-10.98738765716553,1.89679694175720,1.69096088409424,91.29505157470703,-72.27484893798828,21.31805801391602
498,699953342,74.66388702392578,63.17882156372070,-13.36468601226807,-11.00079250335693,1.98257005214691,1.70136034488678,91.29948425292969,-70.35447692871094,15.44330024719238
499,699961675,74.52893829345703,63.03338623046875,-14.38319492340088,-9.91006374359131,1.24416661262512,1.13610029220581,91.24910736083984,-61.33768844604492,5.86921977996826
500,699970008,74.44338226318359,62.87827682495117,-15.35712528228760,-10.68020343780518,1.53031218051910,1.10181879997253,92.97975158691406,-56.71466445922852,1.72663545608521
501,699978341,74.27011108398438,62.81279754638672,-16.39167594909668,-10.75404739379883,0.99626702070236,1.34929382801056,88.24946594238281,-59.92636108398438,-3.65306234359741
502,699986674,74.10620117187500,62.72103881835938,-17.46016120910645,-10.47439479827881,0.55698001384735,0.69484192132950,93.49003601074219,-59.99114227294922,-7.38499784469604
503,699995007,74.11255645751953,62.71960067749023,-18.40834808349609,-10.21541786193848,1.32235038280487,0.22242070734501,100.62332916259766,-53.29991912841797,-9.67325019836426
504,700003340,74.04922485351562,62.62181091308594,-19.45573806762695,-10.00370502471924,1.64591920375824,0.73902314901352,103.21378326416016,-59.25100326538086,-6.52807331085205
505,700011673,74.17567443847656,62.63694763183594,-20.25674057006836,-8.89808177947998,2.47070074081421,-0.03187627345324,99.37939453125000,-44.96199035644531,-9.10967063903809
506,700020006,74.00791168212891,62.51589584350586,-21.30577087402344,-10.77571201324463,3.17871046066284,1.87321758270264,90.75089263916016,-60.28406143188477,-3.90429019927979
507,700028339,73.73829650878906,62.45318222045898,-22.50788497924805,-9.97391891479492,1.42769682407379,1.26471269130707,94.55828857421875,-68.91113281250000,-6.37325620651245
508,700036672,73.74835205078125,62.41574478149414,-23.48033714294434,-9.76753616333008,1.70559847354889,0.92759627103806,103.80017089843750,-53.65061187744141,-12.78473091125488
509,700045005,73.73468780517578,62.45494842529297,-24.42930603027344,-10.47734355926514,1.64279282093048,0.87856173515320,98.42964935302734,-51.87979888916016,-14.09715557098389
510,700053338,73.57991027832031,62.38763046264648,-25.49591636657715,-11.10121345520020,1.67078495025635,0.93099093437195,94.02013397216797,-59.69188690185547,-10.89721012115479
511,700061671,73.47879791259766,62.39780044555664,-26.53308105468750,-10.37050819396973,1.33528494834900,0.55336385965347,97.42443847656250,-57.41107940673828,-12.06167507171631
512,700070004,73.43894195556641,62.35073471069336,-27.48509597778320,-11.10316371917725,2.47182822227478,0.98292100429535,95.58126068115234,-52.95087814331055,-11.63674831390381
513,700078337,73.30081939697266,62.34959411621094,-28.51686477661133,-10.85073947906494,2.01408123970032,0.81200975179672,92.48851776123047,-57.38991546630859,-10.59584903717041
514,700086670,73.31095886230469,62.32891082763672,-29.41928100585938,-9.83488273620605,1.90420722961426,0.37472844123840,96.27313995361328,-49.43406677246094,-14.02857685089111
515,700095003,73.39472198486328,62.40284347534180,-30.24481964111328,-9.87672519683838,2.08828902244568,0.18649190664291,97.32453918457031,-43.63247680664062,-15.72256088256836
516,700103336,73.50997161865234,62.42031478881836,-31.04288864135742,-9.85045242309570,1.43366682529449,-0.29121416807175,97.84400177001953,-42.48836135864258,-16.60659599304199
517,700111669,73.75769805908203,62.54555892944336,-31.74547386169434,-9.13878154754639,1.47219944000244,-0.83577167987823,104.06330871582031,-35.17528533935547,-19.23504257202148
518,700120002,74.00256347656250,62.56816101074219,-32.45547103881836,-10.34444999694824,2.71444845199585,-0.28297421336174,104.12743377685547,-37.54381179809570,-15.46630096435547
519,700128335,74.21816253662109,62.63445281982422,-33.17034149169922,-10.22068595886230,3.07161903381348,-0.03875786811113,101.63364410400391,-37.73715591430664,-12.11558246612549
520,700136668,74.52687835693359,62.63444900512695,-33.79203414916992,-9.55438613891602,3.29767179489136,-0.27278959751129,102.43487548828125,-33.60809326171875,-11.18892574310303
521,700145001,74.83687591552734,62.69934844970703,-34.39141082763672,-9.76669692993164,3.73285508155823,-0.20162567496300,100.70807647705078,-31.61460685729980,-9.80917072296143
522,700153334,75.22212982177734,62.70795440673828,-34.88707733154297,-9.11896991729736,3.69197201728821,-0.64158368110657,98.21530914306641,-26.67081069946289,-9.99484348297119
523,700161667,75.60752868652344,62.76560592651367,-35.35807037353516,-9.59053802490234,4.40561103820801,-0.10921913385391,96.09791564941406,-25.03423881530762,-6.76577758789062
524,700170000,76.06118774414062,62.75690078735352,-35.72522735595703,-9.38431835174561,4.58440113067627,0.00440692342818,92.73648071289062,-20.39897918701172,-5.86742162704468
525,700178333,76.47293090820312,62.79298400878906,-36.09787750244141,-10.00084495544434,4.92601585388184,0.07424016296864,88.76480865478516,-20.44458389282227,-2.66494965553284
526,700186666,77.04055786132812,62.80100250244141,-36.26813507080078,-8.57601547241211,4.26762390136719,-1.13301444053650,85.41168975830078,-9.46892738342285,-5.02108860015869
527,700194999,77.53591156005859,62.83481597900391,-36.48453903198242,-10.32814311981201,5.23908996582031,-0.26930633187294,82.07783508300781,-12.20894622802734,-0.23803454637527
528,700203332,78.10173034667969,62.82292556762695,-36.60980606079102,-9.72009849548340,4.52370405197144,-0.50910973548889,80.39529418945312,-7.61356735229492,-1.99256837368011
529,700211665,78.63677215576172,62.87199401855469,-36.72388839721680,-10.61001682281494,5.24859237670898,-0.12336087971926,75.85630035400391,-6.39414024353027,-0.76151520013809
530,700219998,79.17961120605469,62.87090301513672,-36.79106521606445,-10.44326591491699,5.13308048248291,-0.40235790610313,71.43285369873047,-4.24078845977783,-2.51471447944641
531,700228331,79.68679046630859,62.94536590576172,-36.86102294921875,-10.42670249938965,5.36666440963745,-0.54332578182220,67.75554656982422,-3.52747845649719,-3.28631949424744
532,700236664,80.21282196044922,62.97753524780273,-36.88144302368164,-9.85417747497559,4.99589824676514,-0.96015518903732,64.41613006591797,-1.03563857078552,-5.93309783935547
533,700244997,80.71742248535156,63.07815170288086,-36.90220642089844,-10.03432369232178,5.06437397003174,-0.66664862632751,62.10073089599609,-0.51333665847778,-5.98691225051880
534,700253330,81.23620605468750,63.13202667236328,-36.88994598388672,-9.68053913116455,4.77810335159302,-1.04391753673553,60.05458068847656,1.05132699012756,-8.21233558654785
535,700261663,81.75679779052734,63.25632858276367,-36.87707519531250,-9.92363548278809,4.81841611862183,-0.58432602882385,60.33654022216797,1.49719536304474,-8.61932086944580
536,700269996,82.29560852050781,63.30702209472656,-36.81684112548828,-10.04162788391113,5.31967639923096,-0.75521957874298,57.31618118286133,3.43822193145752,-7.50092077255249
537,700278329,82.76031494140625,63.42353820800781,-36.79533767700195,-10.42842960357666,5.43316316604614,-0.48364388942719,52.62178802490234,1.57741785049438,-7.77519369125366
538,700286662,83.23108673095703,63.50780868530273,-36.76320648193359,-9.65817260742188,4.63392305374146,-1.21635007858276,52.15379714965820,2.31418800354004,-11.75440120697021
539,700294995,83.74918365478516,63.61930084228516,-36.69461441040039,-10.12638092041016,5.12233686447144,-0.95003247261047,53.88504791259766,3.76367545127869,-7.02500295639038
540,700303328,84.17462158203125,63.64783477783203,-36.71324157714844,-10.75712299346924,4.83929538726807,-0.71935105323792,52.15665817260742,-1.26060748100281,-5.43686437606812
541,700311661,84.59411621093750,63.70849609375000,-36.74667739868164,-10.09701442718506,4.30251169204712,-1.26213228702545,53.05284881591797,-1.67755770683289,-9.34801769256592
542,700319994,85.06726837158203,63.84279632568359,-36.73459243774414,-10.15250587463379,4.47022390365601,-1.26336109638214,54.48596191406250,0.73911350965500,-10.19746398925781
543,700328327,85.50550079345703,63.98443984985352,-36.74782180786133,-10.17937660217285,4.40102767944336,-1.61176466941833,52.95176696777344,-0.72603738307953,-11.24854660034180
544,700336660,85.93389892578125,64.07145690917969,-36.75672149658203,-9.81602191925049,4.21905755996704,-1.77907764911652,51.46910095214844,-0.33060371875763,-12.36771011352539
545,700344993,86.33231353759766,64.14475250244141,-36.81364822387695,-10.13424110412598,4.38732147216797,-1.25470328330994,53.06290054321289,-3.00970578193665,-10.90267467498779
546,700353326,86.68493652343750,64.29784393310547,-36.91168212890625,-9.99048900604248,4.34175252914429,-1.11636137962341,51.74517822265625,-5.43192195892334,-12.92389965057373
547,700361659,87.03502655029297,64.47576904296875,-36.99645614624023,-9.70133781433105,4.26258707046509,-1.23033428192139,49.97414779663086,-4.72645235061646,-15.88839626312256
548,700369992,87.37501525878906,64.59911346435547,-37.06224060058594,-9.51924133300781,4.33254718780518,-1.42836678028107,47.01630020141602,-3.32096982002258,-16.86703872680664
549,700378325,87.63986206054688,64.70608520507812,-37.19533157348633,-9.87854576110840,4.37825345993042,-1.05514836311340,45.31893539428711,-6.91158008575439,-15.04314327239990
550,700386658,87.84155273437500,64.87911224365234,-37.38454055786133,-9.64327621459961,4.09865379333496,-1.14161658287048,43.48228836059570,-10.34384346008301,-15.50151062011719
551,700394991,88.06733703613281,65.04421234130859,-37.56319808959961,-9.56682014465332,4.03763866424561,-1.21736514568329,45.21132659912109,-9.90980911254883,-14.56482219696045
552,700403324,88.24771881103516,65.14619445800781,-37.79393768310547,-9.70779514312744,3.86879730224609,-1.23263490200043,45.85530090332031,-11.92498874664307,-14.51526069641113
553,700411657,88.41404724121094,65.26617431640625,-38.01755142211914,-9.34365749359131,3.75989890098572,-1.52813661098480,43.41860961914062,-11.47960567474365,-16.63645172119141
554,700419990,88.58627319335938,65.43627166748047,-38.22042465209961,-9.30448532104492,3.96992111206055,-1.17275071144104,41.45982742309570,-11.15445613861084,-15.13929557800293
555,700428323,88.69437408447266,65.59822845458984,-38.49031066894531,-9.32255077362061,3.98416757583618,-0.78328639268875,41.07169342041016,-14.56415271759033,-14.27276515960693
556,700436656,88.74094390869141,65.69046783447266,-38.82379531860352,-9.11168575286865,4.27549934387207,-0.56635200977325,41.13029861450195,-16.92589187622070,-13.34622001647949
557,700444989,88.72914123535156,65.77856445312500,-39.19643020629883,-8.93112468719482,4.55676364898682,-0.60586780309677,38.43961715698242,-18.79849815368652,-12.88644123077393
558,700453322,88.66552734375000,65.93521881103516,-39.59502410888672,-8.62817859649658,4.49152469635010,-0.93549239635468,34.66083526611328,-20.69295120239258,-13.83298778533936
559,700461655,88.60839080810547,66.10091400146484,-39.95743179321289,-8.10824108123779,4.46800422668457,-0.71627998352051,31.51967811584473,-18.78583908081055,-15.04008483886719
560,700469988,88.54128265380859,66.20224761962891,-40.30307769775391,-8.02182197570801,4.50856781005859,-0.51247179508209,28.96538734436035,-17.14641761779785,-14.47569465637207
561,700478321,88.50233459472656,66.33039093017578,-40.56985092163086,-7.79727172851562,4.43689537048340,-0.74192702770233,23.72173500061035,-13.15312671661377,-17.61454010009766
562,700486654,88.46235656738281,66.50931549072266,-40.81944274902344,-7.99713993072510,4.43995618820190,-0.96869629621506,21.31596565246582,-12.99001407623291,-16.67559814453125
563,700494987,88.40026092529297,66.68248748779297,-41.06262588500977,-7.91814327239990,4.26923322677612,-1.56390118598938,17.97686386108398,-12.64396381378174,-16.16563987731934
564,700503320,88.36601257324219,66.79350280761719,-41.25180053710938,-7.58411216735840,4.15711641311646,-1.70401966571808,15.81952571868896,-9.27791595458984,-15.47553920745850
565,700511653,88.35891723632812,66.88308715820312,-41.41099929809570,-7.52086830139160,4.03803110122681,-1.51078212261200,15.79508781433105,-7.88093948364258,-12.86734199523926
566,700519986,88.40084075927734,67.02731323242188,-41.51340484619141,-7.39497709274292,3.71551132202148,-1.50753533840179,14.93542289733887,-6.06002330780029,-12.67088031768799
567,700528319,88.50224304199219,67.16842651367188,-41.53356552124023,-7.21913528442383,3.63851141929626,-1.86395466327667,12.94009685516357,-2.32567071914673,-12.34316921234131
568,700536652,88.58002471923828,67.23316192626953,-41.57650756835938,-7.43702125549316,3.50698018074036,-1.50005185604095,13.15515327453613,-2.50079512596130,-9.71745395660400
569,700544985,88.64160156250000,67.28514862060547,-41.65351867675781,-7.69738769531250,3.57316970825195,-1.05149209499359,14.99069404602051,-4.10627031326294,-8.22798538208008
570,700553318,88.74243927001953,67.37739562988281,-41.69164657592773,-7.99446582794189,4.32458162307739,-0.46712684631348,14.80919456481934,-3.47544264793396,-6.61492872238159
571,700561651,88.66784667968750,67.43972015380859,-41.91204071044922,-8.94118404388428,4.68642997741699,0.18726864457130,13.91802406311035,-11.98633956909180,-3.37160229682922
572,700569984,88.43824005126953,67.46224212646484,-42.27199935913086,-8.77858066558838,4.18534708023071,-0.39567473530769,11.41456413269043,-17.20088768005371,-5.01409006118774
573,700578317,88.28182220458984,67.48670196533203,-42.54969406127930,-8.53567314147949,4.36382961273193,-0.73740327358246,11.08096408843994,-13.37347793579102,-5.20322608947754
574,700586650,88.09416198730469,67.53759765625000,-42.85999298095703,-9.01589298248291,4.92857789993286,-0.26611393690109,10.38259220123291,-16.02846908569336,-2.35423040390015
575,700594983,87.71632385253906,67.57489776611328,-43.33721542358398,-9.46308135986328,4.87880325317383,-0.26809221506119,6.09558916091919,-23.69638061523438,-1.23980641365051
576,700603316,87.27984619140625,67.59234619140625,-43.82405090332031,-8.84618091583252,3.97679185867310,-1.11749362945557,0.68501466512680,-22.88038635253906,-4.96265792846680
577,700611649,86.94374847412109,67.61661529541016,-44.20718383789062,-8.10564708709717,3.97083902359009,-1.30958950519562,1.24337923526764,-18.05286598205566,-5.69153499603271
578,700619982,86.65844726562500,67.69258117675781,-44.51779174804688,-7.94161415100098,3.80960178375244,-1.18454027175903,-1.23727011680603,-15.72263336181641,-5.99316835403442
579,700628315,86.40513610839844,67.74826812744141,-44.80894088745117,-8.08014392852783,4.07965612411499,-0.39628851413727,0.40392374992371,-14.99344825744629,-3.71946930885315
580,700636648,86.03690338134766,67.73036956787109,-45.21481704711914,-8.77918529510498,4.42960309982300,0.36860135197639,-0.05215059220791,-19.27789115905762,-0.96737307310104
581,700644981,85.65998840332031,67.72181701660156,-45.57322692871094,-8.31008815765381,4.24108695983887,-0.12038049101830,-6.36073303222656,-17.04706764221191,-2.05374956130981
582,700653314,85.37277984619141,67.77474212646484,-45.81253433227539,-7.92390203475952,4.15012359619141,-0.49534583091736,-9.37924194335938,-12.54685306549072,-3.57203388214111
583,700661647,85.13966369628906,67.83027648925781,-45.98538208007812,-7.68686437606812,4.17347621917725,-0.63991761207581,-10.26746749877930,-9.48963832855225,-3.84310889244080
584,700669980,84.87198638916016,67.82164001464844,-46.19457626342773,-7.94312334060669,4.30552101135254,-0.47389262914658,-9.81307125091553,-10.26178073883057,-1.68416166305542
585,700678313,84.57318115234375,67.81920623779297,-46.40446090698242,-8.05494213104248,3.83983063697815,-0.65855830907822,-13.47091293334961,-10.21595859527588,-2.47720432281494
586,700686646,84.36997222900391,67.88130187988281,-46.49225616455078,-7.59073829650879,3.30095386505127,-1.39733958244324,-16.14078712463379,-5.55928897857666,-4.52923822402954
587,700694979,84.26653289794922,67.94839477539062,-46.48942947387695,-7.35989046096802,3.31665706634521,-1.27946305274963,-14.28175735473633,-1.49730598926544,-4.84544610977173
588,700703312,84.16294097900391,67.95915222167969,-46.50637054443359,-7.59790277481079,3.63214898109436,-0.68674880266190,-11.49287891387939,-1.36723685264587,-3.25285482406616
589,700711645,84.06335449218750,68.00738525390625,-46.50115966796875,-8.05371379852295,3.87995815277100,-0.40033468604088,-14.13283443450928,-1.70447385311127,-2.70309615135193
590,700719978,83.86414337158203,67.99929809570312,-46.58647918701172,-8.18089866638184,3.74743080139160,-0.24866886436939,-15.36175632476807,-4.65894842147827,-1.33211982250214
591,700728311,83.74012756347656,68.04430389404297,-46.59998321533203,-7.73325824737549,3.49229383468628,-0.69203430414200,-14.99093818664551,-2.60724782943726,-2.52999544143677
592,700736644,83.67042541503906,68.04305267333984,-46.56069946289062,-7.66983938217163,3.85663747787476,-0.64765805006027,-13.69029903411865,0.99115574359894,-1.55022513866425
593,700744977,83.58223724365234,68.05651092529297,-46.55903244018555,-8.26828098297119,4.12833309173584,-0.20643843710423,-12.42241954803467,-2.41654968261719,1.17468178272247
594,700753310,83.46059417724609,68.02831268310547,-46.57228469848633,-8.59603309631348,4.22075414657593,-0.34145307540894,-14.06562519073486,-1.72242951393127,1.40884721279144
595,700761643,83.34162139892578,68.03856658935547,-46.55355453491211,-8.69742393493652,4.19450616836548,-0.56629025936127,-18.04477310180664,-1.74443233013153,1.49409162998199
596,700769976,83.18007659912109,68.00736236572266,-46.55988311767578,-8.41871547698975,3.94722175598145,-0.84509438276291,-19.61884498596191,-1.47681474685669,1.80256402492523
597,700778309,83.08054351806641,68.01521301269531,-46.50268554687500,-8.33239841461182,3.63171792030334,-1.13093972206116,-20.04742240905762,-0.14082710444927,1.85294735431671
598,700786642,82.98123931884766,67.98230743408203,-46.43112945556641,-8.25435543060303,3.58791565895081,-1.25916469097137,-20.83426856994629,1.95881092548370,2.41909861564636
599,700794975,82.95069122314453,67.98532867431641,-46.29825210571289,-8.38515281677246,3.82861828804016,-1.12396442890167,-20.22144699096680,3.02933239936829,2.75351834297180
600,700803308,82.88268280029297,67.93915557861328,-46.19104766845703,-8.68397712707520,4.31065177917480,-0.24810074269772,-21.04215240478516,3.34797406196594,4.20697355270386
601,700811641,82.83612060546875,67.91985321044922,-46.05263137817383,-9.00002193450928,4.51345491409302,0.56346428394318,-22.80259513854980,2.86550378799438,5.31361103057861
602,700819974,82.73140716552734,67.86815643310547,-45.98131179809570,-9.50076293945312,5.07339668273926,0.28659379482269,-21.44980239868164,1.65469300746918,4.67297267913818
603,700828307,82.60030364990234,67.82907867431641,-45.92409515380859,-9.67862892150879,5.04674005508423,-0.01268417946994,-23.92073822021484,-1.06440019607544,7.04918241500854
604,700836640,82.42295074462891,67.75016021728516,-45.89865493774414,-9.63513183593750,5.00651597976685,-0.50656032562256,-25.06392478942871,-0.85556715726852,7.65311431884766
605,700844973,82.27181243896484,67.70123291015625,-45.84764862060547,-9.84740066528320,5.08191776275635,-0.43221953511238,-25.67349815368652,-1.57020485401154,8.02047538757324
606,700853306,82.08695220947266,67.64972686767578,-45.78945922851562,-9.46037197113037,4.63749170303345,-1.25008690357208,-29.59809303283691,1.01889669895172,4.59800243377686
607,700861639,82.06993865966797,67.66912841796875,-45.54203414916992,-9.00076293945312,4.41739320755005,-1.80351006984711,-31.43123245239258,8.29944324493408,0.97448176145554
608,700869972,81.99544525146484,67.63567352294922,-45.36640548706055,-9.49644184112549,4.90226697921753,-0.82173371315002,-29.38900375366211,6.60723543167114,3.20005321502686
609,700878305,81.85801696777344,67.62159729003906,-45.24588394165039,-9.75193881988525,4.37212848663330,-0.95494806766510,-31.86577606201172,1.86327075958252,4.01261377334595
610,700886638,81.74903106689453,67.59365844726562,-45.07865524291992,-9.13766288757324,3.91725850105286,-1.56308078765869,-32.59237670898438,6.31443929672241,2.52081441879272
611,700894971,81.71616363525391,67.58035278320312,-44.87237167358398,-9.25226879119873,4.44948148727417,-1.09500181674957,-28.90425109863281,5.61691093444824,4.39019346237183
612,700903304,81.57608032226562,67.51917266845703,-44.76987457275391,-9.38108825683594,4.92096185684204,-0.36729484796524,-29.14376831054688,2.80418467521667,6.05691337585449
613,700911637,81.43184661865234,67.47261810302734,-44.66379547119141,-9.47823143005371,4.88393783569336,-0.29243820905685,-31.18855667114258,0.40149062871933,7.54855871200562
614,700919970,81.19260406494141,67.38182830810547,-44.63512420654297,-9.59065341949463,5.03222513198853,-0.27300137281418,-32.85267257690430,-1.11877965927124,9.08001232147217
615,700928303,80.96636199951172,67.32190704345703,-44.54881286621094,-9.45908737182617,5.01686334609985,-0.38875171542168,-38.87037658691406,-0.82027149200439,8.84971809387207
616,700936636,80.64584350585938,67.23995971679688,-44.48807144165039,-9.39703273773193,4.32186365127563,-1.00430428981781,-46.15489196777344,0.42559412121773,8.26697158813477
617,700944969,80.39752197265625,67.17446899414062,-44.38142395019531,-9.22010135650635,3.90108776092529,-1.36607944965363,-43.81217193603516,-0.15199512243271,9.54273986816406
618,700953302,80.12490844726562,67.05969238281250,-44.34387207031250,-9.28251838684082,3.98976254463196,-1.18223619461060,-37.83100128173828,-1.38719213008881,11.97934722900391
619,700961635,79.92472839355469,66.94905853271484,-44.27199554443359,-9.50546741485596,3.96578240394592,-0.85193514823914,-34.25743865966797,-2.87217879295349,14.53879737854004
620,700969968,79.67397308349609,66.80848693847656,-44.24823379516602,-9.62502002716064,3.97667837142944,-0.74169456958771,-33.67502593994141,-2.67446231842041,14.91384315490723
621,700978301,79.52027130126953,66.70040130615234,-44.14217376708984,-9.57426929473877,3.91474676132202,-0.63962209224701,-32.50216674804688,-1.38913834095001,14.46213150024414
622,700986634,79.37509918212891,66.57836151123047,-44.02635574340820,-9.62244129180908,4.05240678787231,-0.48793259263039,-31.14911842346191,1.94177842140198,13.51565742492676
623,700994967,79.30129241943359,66.48708343505859,-43.83805465698242,-9.72452163696289,4.22263050079346,-0.46431604027748,-31.99654388427734,2.74360775947571,13.15869998931885
624,701003300,79.19489288330078,66.38363647460938,-43.66840744018555,-9.44750213623047,4.45640087127686,-0.60378617048264,-32.40195846557617,4.88647127151489,11.82048130035400
625,701011633,79.17934417724609,66.29497528076172,-43.42887878417969,-9.37481594085693,5.20685243606567,-0.34409093856812,-30.65355873107910,5.18236732482910,13.25003910064697
626,701019966,78.95962524414062,66.14636993408203,-43.39384841918945,-9.99818897247314,5.77254915237427,0.09945135563612,-31.18321228027344,-2.51547408103943,15.94081783294678
627,701028299,78.66819763183594,66.01786041259766,-43.40949630737305,-9.73931503295898,5.23314619064331,-0.69483655691147,-35.76152038574219,-7.92702817916870,15.42874336242676
628,701036632,78.39868927001953,65.87703704833984,-43.38590240478516,-8.73546028137207,4.96431970596313,-1.37552642822266,-35.89890670776367,-3.02881026268005,14.90054988861084
629,701044965,78.15839385986328,65.71334075927734,-43.34973526000977,-9.13648223876953,5.41035223007202,-0.22869670391083,-35.39348983764648,-6.54485559463501,19.87233161926270
630,701053298,77.67056274414062,65.48027038574219,-43.54449081420898,-9.64480972290039,4.90264940261841,0.03859417140484,-38.23247528076172,-16.10121917724609,23.43570327758789
631,701061631,77.32446289062500,65.31272125244141,-43.56972885131836,-8.76119518280029,4.05271530151367,-0.65690261125565,-41.41585922241211,-9.91756820678711,19.48233604431152
632,701069964,76.97031402587891,65.11865997314453,-43.59082794189453,-8.62253952026367,4.22614812850952,-0.42119652032852,-41.17708587646484,-7.02051591873169,20.57217597961426
633,701078297,76.51782226562500,64.88818359375000,-43.73944473266602,-9.27642917633057,4.52628326416016,0.46170783042908,-40.84084320068359,-18.08392333984375,25.21792793273926
634,701086630,75.84590148925781,64.59940338134766,-44.08955001831055,-9.44943141937256,4.13421058654785,0.43973353505135,-43.61275100708008,-26.49262809753418,27.47571754455566
635,701094963,75.13727569580078,64.29308319091797,-44.45392990112305,-9.20600318908691,4.03079271316528,0.25254055857658,-46.56150817871094,-28.27213859558105,28.96689033508301
636,701103296,74.38357543945312,63.97534942626953,-44.84002685546875,-9.33465480804443,3.79730534553528,0.29154211282730,-51.47855758666992,-33.94817733764648,31.41887474060059
637,701111629,73.56251525878906,63.65440750122070,-45.27255630493164,-8.85365962982178,3.23422789573669,0.13551452755928,-54.69622421264648,-37.08535766601562,30.61072540283203
638,701119962,72.63942718505859,63.28552246093750,-45.78563308715820,-8.66930866241455,2.98458862304688,0.21234087646008,-56.66379547119141,-39.99919128417969,32.46427536010742
639,701128295,71.63557434082031,62.88862609863281,-46.42007064819336,-8.33027648925781,2.45554351806641,-0.31149098277092,-53.54954528808594,-48.21639633178711,32.86666488647461
640,701136628,70.67660522460938,62.49026107788086,-47.02084732055664,-7.36423826217651,2.74942064285278,0.16353569924831,-53.80667877197266,-51.23986434936523,34.47830581665039
641,701144961,69.55244445800781,62.03055572509766,-47.79454421997070,-7.37010765075684,2.05220127105713,0.22891363501549,-55.51558685302734,-63.95315933227539,37.14694976806641
642,701153294,68.40010070800781,61.53570938110352,-48.60827636718750,-5.84458875656128,1.35011398792267,-0.27870059013367,-53.21627044677734,-65.22418975830078,36.96862030029297
643,701161627,67.35098266601562,61.05060195922852,-49.34157562255859,-5.40632295608521,1.45114123821259,-0.05933491140604,-49.69102859497070,-61.89690399169922,36.11368942260742
644,701169960,66.32248687744141,60.55018234252930,-50.09097671508789,-5.47427749633789,1.40925443172455,0.13435404002666,-47.75520324707031,-68.56620788574219,37.97611618041992
645,701178293,65.25453186035156,59.99792098999023,-50.91429901123047,-5.40183591842651,0.91840428113937,-0.08912678062916,-45.16593551635742,-76.51031494140625,40.45104217529297
646,701186626,64.16074371337891,59.40092468261719,-51.78264999389648,-4.93647193908691,0.29074859619141,-0.02988851070404,-42.26950836181641,-78.97342681884766,40.41178131103516
647,701194959,63.12020492553711,58.81779861450195,-52.63172531127930,-4.47355985641479,-0.25548875331879,-0.06752018630505,-38.41300582885742,-78.76029968261719,37.57619476318359
648,701203292,62.14100646972656,58.26210784912109,-53.47388458251953,-4.24717760086060,-0.69917702674866,-0.75211364030838,-34.10708999633789,-82.20968627929688,35.19156646728516
649,701211625,61.20113754272461,57.66944122314453,-54.39043807983398,-4.51276540756226,-0.48266938328743,-0.28834077715874,-22.32719612121582,-89.87680053710938,35.32762145996094
650,701219958,60.23134231567383,56.99406433105469,-55.39306640625000,-5.10840940475464,-0.17813304066658,0.10150580108166,-16.07951927185059,-97.12451934814453,37.02139663696289
651,701228291,59.22148895263672,56.24562454223633,-56.50418472290039,-5.69182491302490,0.07618170976639,0.51841509342194,-10.82701015472412,-109.45862579345703,38.68167877197266
652,701236624,58.19167709350586,55.45812988281250,-57.67631149291992,-5.97638750076294,0.19454625248909,0.85068619251251,-9.88790321350098,-121.39457702636719,40.38768386840820
653,701244957,57.14500045776367,54.59153747558594,-58.93743133544922,-6.04179286956787,0.18162541091442,1.25690364837646,-4.23761558532715,-133.78608703613281,42.34619522094727
654,701253290,56.04857635498047,53.60834503173828,-60.29884338378906,-5.81260919570923,0.15260811150074,1.16154217720032,-0.22133709490299,-145.76910400390625,43.85173034667969
655,701261623,54.93117523193359,52.55146408081055,-61.74039459228516,-5.67034435272217,0.71628272533417,1.11780309677124,3.22837924957275,-158.31173706054688,43.73028564453125
656,701269956,53.86195755004883,51.51517486572266,-63.18885421752930,-4.99065113067627,1.72187161445618,0.84889715909958,6.28395700454712,-164.22233581542969,40.02768707275391
657,701278289,52.83313369750977,50.48014068603516,-64.64925384521484,-4.83902835845947,1.97389686107635,2.49038195610046,10.36618328094482,-167.52836608886719,35.10894393920898
658,701286622,51.82363128662109,49.40022659301758,-66.11983489990234,-4.31634283065796,1.53887307643890,1.86903047561646,12.93154525756836,-169.94198608398438,31.26183509826660
659,701294955,50.89815521240234,48.30999755859375,-67.54821014404297,-4.00635957717896,1.82639729976654,0.62099117040634,17.03603363037109,-170.62280273437500,29.86252403259277
660,701303288,49.95228958129883,47.10274124145508,-69.02616119384766,-5.67888498306274,2.16796398162842,0.09653176367283,15.56911373138428,-189.10987854003906,37.09020996093750
661,701311621,49.00541687011719,45.79349899291992,-70.45925903320312,-5.96069049835205,2.00767374038696,-0.14171144366264,8.91483020782471,-197.04234313964844,43.97158050537109
662,701319954,48.07878875732422,44.44936370849609,-71.76747131347656,-6.41118288040161,0.82230848073959,-0.07153597474098,-0.94506919384003,-190.66596984863281,45.64010238647461
663,701328287,47.26213455200195,43.20078277587891,-73.02011871337891,-7.54759311676025,1.18350851535797,1.25698375701904,5.10444355010986,-181.91909790039062,35.83412933349609
664,701336620,46.60559082031250,42.08440399169922,-74.29470825195312,-8.80568313598633,1.93224954605103,3.05417394638062,22.86435127258301,-178.73846435546875,22.81955146789551
665,701344953,46.08478546142578,41.04868316650391,-75.57674407958984,-9.18021583557129,2.17825150489807,3.61606001853943,37.74580001831055,-174.28408813476562,12.50546455383301
666,701353286,45.61774063110352,40.01956939697266,-76.87109375000000,-9.31336116790771,1.65887486934662,2.76773595809937,43.90016174316406,-171.59014892578125,4.48757219314575
667,701361619,45.20890808105469,39.03070068359375,-78.18073272705078,-9.64604759216309,1.01582670211792,2.38606619834900,49.96161651611328,-170.49147033691406,-2.48749327659607
668,701369952,44.82659530639648,38.16638565063477,-79.53688812255859,-10.21403217315674,1.04617309570312,3.03842139244080,54.18221282958984,-168.59875488281250,-14.09890365600586
669,701378285,44.45145034790039,37.37797164916992,-80.95099639892578,-10.28384208679199,1.99291920661926,4.24312686920166,57.65169525146484,-167.10156250000000,-26.12863540649414
670,701386618,44.13231658935547,36.58304214477539,-82.38874053955078,-10.16790676116943,2.27974033355713,5.29248762130737,64.48240661621094,-165.40228271484375,-33.93863677978516
671,701394951,43.94029617309570,35.85213088989258,-83.77981567382812,-9.73512649536133,2.76861047744751,5.81645441055298,74.59074401855469,-157.53718566894531,-37.75223541259766
672,701403284,43.88281250000000,35.24740600585938,-85.10731506347656,-9.42622280120850,2.93932652473450,7.32464599609375,84.96826934814453,-147.75532531738281,-39.74868011474609
673,701411617,43.93002319335938,34.74221038818359,-86.39904022216797,-8.95161342620850,2.78469824790955,8.55490589141846,94.12348937988281,-137.33584594726562,-45.86777114868164
