sep=,
DeviceTag:,Foot_01,,,,,,,,,,,,,,,,,
FirmwareVersion:,1.9.1,,,,,,,,,,,,,,,,,
AppVersion:,2022.0.1,,,,,,,,,,,,,,,,,
StartTime:,2023-02-19 14:17:33.000 -0500,,,,,,,,,,,,,,,,,
© Xsens Technologies B. V. 2005-2023,,,,,,,,,,,,,,,,,,,

PacketCounter,SampleTimeFine,Euler_X,Euler_Y,Euler_Z,Acc_X,Acc_Y,Acc_Z,Gyr_X,Gyr_Y,Gyr_Z,
0, 4127116052, -5.0164690017700195, -85.64945220947266, -161.54090881347656, 0.0, 0.0, 0.0, 0.0, 0.0, 0.0, 
1, 4127132719, -5.175776958465576, -85.64356231689453, -161.40023803710938, 9.946621894836426, -0.03423256054520607, 0.8856667876243591, -0.734123945236206, 0.5112614631652832, -0.5832012295722961, 
2, 4127149386, -4.758857727050781, -85.54447174072266, -161.8585662841797, 9.852461814880371, -0.09094147384166718, 0.8125171065330505, -1.0012515783309937, -0.1560581773519516, -0.32867497205734253, 
3, 4127166053, -4.723244667053223, -85.47848510742188, -161.897216796875, 9.86174201965332, -0.03175691142678261, 0.7259576320648193, -1.3117928504943848, -0.37093591690063477, -0.3372039794921875, 
4, 4127182720, -4.542177677154541, -85.4746322631836, -162.07113647460938, 9.905752182006836, -0.029191460460424423, 0.7485088109970093, -1.2075618505477905, -0.585608720779419, -0.3536345064640045, 
5, 4127199387, -4.263375759124756, -85.4884262084961, -162.34054565429688, 9.915061950683594, -0.06726209074258804, 0.7939328551292419, -1.2647807598114014, -0.5993883609771729, -0.6069313287734985, 
6, 4127216054, -4.081603527069092, -85.49376678466797, -162.52471923828125, 9.929736137390137, -0.07905739545822144, 0.8797685503959656, -1.6714720726013184, -0.33735769987106323, -0.6249370574951172, 
7, 4127232721, -3.9997003078460693, -85.48126220703125, -162.63278198242188, 9.898794174194336, -0.11259806156158447, 0.8384467363357544, -1.669154167175293, -0.24330785870552063, -0.4494388997554779, 
8, 4127249388, -4.03543758392334, -85.47174072265625, -162.6186981201172, 9.897051811218262, -0.06581418961286545, 0.7868878841400146, -1.766507863998413, -0.5303493142127991, -0.3662872016429901, 
9, 4127266055, -4.011073589324951, -85.4703140258789, -162.64479064941406, 9.880797386169434, -0.09578082710504532, 0.7292506694793701, -1.355692982673645, -0.6607947945594788, -0.5778225660324097, 
10, 4127282722, -4.033149242401123, -85.4796142578125, -162.63999938964844, 9.861723899841309, -0.0752333551645279, 0.7060403823852539, -2.0309078693389893, -0.8188381195068359, -0.5512493848800659, 
11, 4127299389, -4.125672340393066, -85.49758911132812, -162.57369995117188, 9.809664726257324, -0.04040578380227089, 0.6112916469573975, -3.029085874557495, -0.9638442993164062, -0.2886295020580292, 
12, 4127316056, -4.213923454284668, -85.52342224121094, -162.52273559570312, 9.876766204833984, -0.08275207877159119, 0.6989458203315735, -2.509519577026367, -0.9103906154632568, -0.1458515226840973, 
13, 4127332723, -4.325489521026611, -85.56663513183594, -162.4136199951172, 9.854352951049805, -0.15560951828956604, 0.753914475440979, -1.856882095336914, -1.8909598588943481, -0.08411210030317307, 
14, 4127349390, -4.439067840576172, -85.60662078857422, -162.31121826171875, 9.841041564941406, -0.16735410690307617, 0.7347502112388611, -0.9283578395843506, -1.8428593873977661, -0.19495105743408203, 
15, 4127366057, -4.511218070983887, -85.64616394042969, -162.24346923828125, 9.867834091186523, -0.12472689896821976, 0.6660763621330261, 0.04846562445163727, -1.873658537864685, -0.46536993980407715, 
16, 4127382724, -4.530861854553223, -85.6855697631836, -162.20962524414062, 9.90406608581543, -0.09436771273612976, 0.7681952714920044, 0.4637243449687958, -1.7921075820922852, -0.6826680898666382, 
17, 4127399391, -4.538736343383789, -85.72113037109375, -162.19729614257812, 9.880785942077637, -0.12584234774112701, 0.7975520491600037, 0.2849476635456085, -1.711222767829895, -0.6756117343902588, 
18, 4127416058, -4.5883564949035645, -85.75504302978516, -162.15277099609375, 9.873641967773438, -0.07258999347686768, 0.7590286135673523, 0.108258455991745, -1.7849870920181274, -0.49693751335144043, 
19, 4127432725, -4.66500997543335, -85.79066467285156, -162.07818603515625, 9.854718208312988, -0.06828796863555908, 0.7100924253463745, -0.1878819316625595, -1.9711915254592896, -0.3322990834712982, 
20, 4127449392, -4.735687255859375, -85.82740020751953, -162.01638793945312, 9.85688591003418, -0.06552954763174057, 0.6908997893333435, -0.41887012124061584, -2.05517578125, -0.31983858346939087, 
21, 4127466059, -4.791585445404053, -85.86029052734375, -161.9602813720703, 9.907574653625488, -0.02718670852482319, 0.703042209148407, -0.2618386149406433, -1.805029273033142, -0.2980421781539917, 
22, 4127482726, -4.780311584472656, -85.88772583007812, -161.9703369140625, 9.95663833618164, -0.0443028025329113, 0.7174825668334961, 0.5282810926437378, -1.4869964122772217, -0.41945919394493103, 
23, 4127499393, -4.802511692047119, -85.91524505615234, -161.9281768798828, 9.917609214782715, -0.15027211606502533, 0.6609896421432495, 1.0354764461517334, -1.5123655796051025, -0.1848980337381363, 
24, 4127516060, -4.80504846572876, -85.94324493408203, -161.90618896484375, 9.939896583557129, -0.017867665737867355, 0.7286067605018616, 0.8522690534591675, -1.516271948814392, -0.3359874188899994, 
25, 4127532727, -4.753218650817871, -85.9594955444336, -161.9477996826172, 9.880924224853516, -0.09724012762308121, 0.7229956984519958, 0.6597638726234436, -0.8417229056358337, -0.45219215750694275, 
26, 4127549394, -4.809380054473877, -85.97532653808594, -161.89886474609375, 9.859977722167969, -0.1684897094964981, 0.6607093214988708, -0.08631479740142822, -0.8802828192710876, -0.051494333893060684, 
27, 4127566061, -4.924947261810303, -85.98960876464844, -161.79115295410156, 9.937292098999023, -0.10556253045797348, 0.7500056624412537, 0.02408233843743801, -0.793007493019104, 0.1623140573501587, 
28, 4127582728, -5.020524024963379, -85.99748229980469, -161.68360900878906, 9.880624771118164, -0.09521264582872391, 0.7426925301551819, 0.45697537064552307, -0.4569690227508545, 0.13798201084136963, 
29, 4127599395, -5.140999794006348, -86.00384521484375, -161.5568084716797, 9.907999038696289, -0.09070369601249695, 0.7183278203010559, 0.28844383358955383, -0.4083816707134247, 0.24528641998767853, 
30, 4127616062, -5.284727096557617, -86.01233673095703, -161.41383361816406, 9.926275253295898, -0.07476441562175751, 0.7097950577735901, -0.30859458446502686, -0.5661046504974365, 0.29620444774627686, 
31, 4127632729, -5.472031116485596, -86.02616119384766, -161.23361206054688, 9.908157348632812, -0.09938595443964005, 0.6937942504882812, -0.40496236085891724, -0.9052168130874634, 0.4562581777572632, 
32, 4127649396, -5.71337890625, -86.04290008544922, -160.9977264404297, 9.88201904296875, -0.11558155715465546, 0.7191318869590759, -0.5038401484489441, -1.1092348098754883, 0.6543980836868286, 
33, 4127666063, -5.950360298156738, -86.05682373046875, -160.7717742919922, 9.901334762573242, -0.09468498080968857, 0.7104299664497375, -0.5967631340026855, -0.9519472718238831, 0.638031542301178, 
34, 4127682730, -6.182001113891602, -86.06731414794922, -160.5464324951172, 9.903399467468262, -0.09793470799922943, 0.7120798826217651, -0.4215850234031677, -0.7599543929100037, 0.6526435613632202, 
35, 4127699397, -6.396134853363037, -86.07953643798828, -160.3408203125, 9.918133735656738, -0.10956136882305145, 0.7015048265457153, -0.5898476839065552, -0.8729832172393799, 0.5595670342445374, 
36, 4127716064, -6.596199989318848, -86.09390258789062, -160.14987182617188, 9.887824058532715, -0.11099524050951004, 0.6699239015579224, -0.6072514653205872, -0.9948996901512146, 0.48548227548599243, 
37, 4127732731, -6.791638374328613, -86.11274719238281, -159.97633361816406, 9.875411033630371, -0.1263989955186844, 0.6839091777801514, -1.0359697341918945, -1.2598631381988525, 0.4029582142829895, 
38, 4127749398, -6.991809368133545, -86.13143157958984, -159.79934692382812, 9.905228614807129, -0.10864250361919403, 0.7160574793815613, -1.2376185655593872, -1.2609004974365234, 0.3998335003852844, 
39, 4127766065, -7.1816511154174805, -86.1455307006836, -159.61729431152344, 9.898086547851562, -0.12389721721410751, 0.7022801041603088, -1.1953189373016357, -0.9731544852256775, 0.39740023016929626, 
40, 4127782732, -7.306247234344482, -86.15743255615234, -159.50160217285156, 9.918103218078613, -0.10171093791723251, 0.6769645810127258, -0.8843424320220947, -0.8375481963157654, 0.16847394406795502, 
41, 4127799399, -7.442814350128174, -86.17208862304688, -159.37841796875, 9.894371032714844, -0.11054562032222748, 0.6656616926193237, -0.9766761660575867, -0.9942978620529175, 0.1945604681968689, 
42, 4127816066, -7.599524021148682, -86.18864440917969, -159.23719787597656, 9.910308837890625, -0.12718777358531952, 0.6716912984848022, -1.0647584199905396, -1.1175589561462402, 0.2551857531070709, 
43, 4127832733, -7.761738300323486, -86.2061538696289, -159.09359741210938, 9.904165267944336, -0.15095996856689453, 0.6713280081748962, -1.2573275566101074, -1.1824743747711182, 0.25104930996894836, 
44, 4127849400, -7.933432102203369, -86.22358703613281, -158.9571075439453, 9.886871337890625, -0.16294576227664948, 0.6538917422294617, -1.520395278930664, -1.197495937347412, 0.25740116834640503, 
45, 4127866067, -8.10277271270752, -86.23906707763672, -158.80197143554688, 9.924403190612793, -0.14455844461917877, 0.6356799602508545, -1.6131517887115479, -1.0475465059280396, 0.2520865797996521, 
46, 4127882734, -8.239444732666016, -86.24866485595703, -158.69247436523438, 9.92141342163086, -0.14029721915721893, 0.6793610453605652, -1.7131949663162231, -0.6726022362709045, 0.1610974669456482, 
47, 4127899401, -8.349151611328125, -86.25027465820312, -158.61294555664062, 9.9451904296875, -0.09973026067018509, 0.7475486993789673, -1.6055577993392944, -0.2158254086971283, 0.12753203511238098, 
48, 4127916068, -8.496428489685059, -86.2567138671875, -158.49090576171875, 9.879383087158203, -0.2159290611743927, 0.6628281474113464, -1.7808893918991089, -0.5238821506500244, 0.23104575276374817, 
49, 4127932735, -8.666266441345215, -86.26115417480469, -158.3548126220703, 9.89734172821045, -0.16919369995594025, 0.7044684290885925, -2.1797688007354736, -0.4261569380760193, 0.2914533317089081, 
50, 4127949402, -8.815410614013672, -86.26110076904297, -158.24488830566406, 9.870619773864746, -0.21864448487758636, 0.609049379825592, -2.3868603706359863, -0.14645342528820038, 0.23460592329502106, 
51, 4127966069, -8.967772483825684, -86.2607421875, -158.14601135253906, 9.865259170532227, -0.1777552366256714, 0.47727271914482117, -2.6623761653900146, -0.11459121853113174, 0.22014756500720978, 
52, 4127982736, -9.087590217590332, -86.26094818115234, -158.05780029296875, 9.939565658569336, -0.07643736153841019, 0.6430134177207947, -2.5476441383361816, -0.09889063239097595, 0.09084183722734451, 
53, 4127999403, -9.194517135620117, -86.26372528076172, -157.9928436279297, 9.894824981689453, -0.22805234789848328, 0.6344788074493408, -2.0985894203186035, -0.24679116904735565, 0.06072130426764488, 
54, 4128016070, -9.24832534790039, -86.27333068847656, -157.95907592773438, 9.882064819335938, -0.2098715901374817, 0.6314787864685059, -1.3646574020385742, -0.6183673739433289, -0.17456336319446564, 
55, 4128032737, -9.239299774169922, -86.28490447998047, -157.97254943847656, 9.868597030639648, -0.22733639180660248, 0.5660436749458313, -0.5931133031845093, -0.7129166126251221, -0.3974706828594208, 
56, 4128049404, -9.20750617980957, -86.30101013183594, -157.99688720703125, 9.88322639465332, -0.18954959511756897, 0.6237121820449829, -0.24371767044067383, -0.9437639713287354, -0.5121899843215942, 
57, 4128066071, -9.160548210144043, -86.31336975097656, -158.05947875976562, 9.904638290405273, -0.21107399463653564, 0.6974537372589111, -0.48596251010894775, -0.7198576927185059, -0.5555522441864014, 
58, 4128082738, -9.161840438842773, -86.32460021972656, -158.06504821777344, 9.90157413482666, -0.1520562469959259, 0.6710956692695618, -0.9299842715263367, -0.6845762133598328, -0.39406415820121765, 
59, 4128099405, -9.139739990234375, -86.33547973632812, -158.10403442382812, 9.90770149230957, -0.12216174602508545, 0.6420271396636963, -0.9149880409240723, -0.6576957702636719, -0.4767420291900635, 
60, 4128116072, -9.108134269714355, -86.3476791381836, -158.1398162841797, 9.884716033935547, -0.15633025765419006, 0.6178340315818787, -0.8840479850769043, -0.7286813259124756, -0.5144182443618774, 
61, 4128132739, -9.094687461853027, -86.3568115234375, -158.16050720214844, 9.891090393066406, -0.155730739235878, 0.6028443574905396, -0.9064717888832092, -0.5573707222938538, -0.4161423146724701, 
62, 4128149406, -9.059165000915527, -86.36170196533203, -158.20188903808594, 9.908734321594238, -0.14812985062599182, 0.6166064143180847, -0.5200145840644836, -0.28223916888237, -0.43221431970596313, 
63, 4128166073, -9.008796691894531, -86.364013671875, -158.25393676757812, 9.923553466796875, -0.20093636214733124, 0.613730788230896, -0.28261053562164307, -0.13264816999435425, -0.44824787974357605, 
64, 4128182740, -8.966682434082031, -86.3717269897461, -158.2852325439453, 9.916364669799805, -0.21152551472187042, 0.553722083568573, -0.17579275369644165, -0.4487728476524353, -0.4647936224937439, 
65, 4128199407, -8.90672779083252, -86.36617279052734, -158.3404998779297, 9.963757514953613, -0.13439027965068817, 0.7324822545051575, 0.024453723803162575, 0.3460211157798767, -0.4038226008415222, 
66, 4128216074, -8.85191535949707, -86.35530090332031, -158.39675903320312, 9.858932495117188, -0.2991357147693634, 0.6184818148612976, -0.4682769775390625, 0.6573050618171692, -0.36154884099960327, 
67, 4128232741, -8.87267780303955, -86.34585571289062, -158.3748016357422, 9.927512168884277, -0.1856158822774887, 0.6360856890678406, -0.32521724700927734, 0.526577889919281, -0.09813505411148071, 
68, 4128249408, -8.874038696289062, -86.33622741699219, -158.3702850341797, 9.900498390197754, -0.19706350564956665, 0.6734893321990967, 0.12686610221862793, 0.5448397397994995, -0.1454416960477829, 
69, 4128266075, -8.856515884399414, -86.32416534423828, -158.4012451171875, 9.882555961608887, -0.19248220324516296, 0.6442501544952393, -0.2870030701160431, 0.6932781338691711, -0.22486668825149536, 
70, 4128282742, -8.810501098632812, -86.31257629394531, -158.45144653320312, 9.928136825561523, -0.15719293057918549, 0.6571078300476074, -0.42884621024131775, 0.6851333379745483, -0.3501896262168884, 
71, 4128299409, -8.82892894744873, -86.30859375, -158.4431610107422, 9.911659240722656, -0.21097858250141144, 0.6455949544906616, -0.41050758957862854, 0.20246200263500214, -0.1716819405555725, 
72, 4128316076, -8.88860034942627, -86.30621337890625, -158.39788818359375, 9.897615432739258, -0.1938268542289734, 0.6292372345924377, -0.6193022131919861, 0.07812513411045074, -0.04840800166130066, 
73, 4128332743, -8.940357208251953, -86.3051986694336, -158.35719299316406, 9.9012451171875, -0.16732001304626465, 0.6344192028045654, -0.4374520778656006, -0.004892025608569384, -0.08234483003616333, 
74, 4128349410, -8.975848197937012, -86.30001068115234, -158.32276916503906, 9.89398193359375, -0.17000216245651245, 0.638095498085022, -0.37978509068489075, 0.25846415758132935, -0.10088842362165451, 
75, 4128366077, -8.976766586303711, -86.28627014160156, -158.32066345214844, 9.912223815917969, -0.18154259026050568, 0.6337897777557373, -0.19319657981395721, 0.7812449336051941, -0.14176629483699799, 
76, 4128382744, -8.933595657348633, -86.27254486083984, -158.35601806640625, 9.916412353515625, -0.1710517257452011, 0.630997896194458, 0.13854551315307617, 0.8011717796325684, -0.2929452955722809, 
77, 4128399411, -8.849180221557617, -86.25545501708984, -158.43295288085938, 9.897053718566895, -0.18403933942317963, 0.6262825727462769, 0.34148770570755005, 1.0393953323364258, -0.40854814648628235, 
78, 4128416078, -8.789362907409668, -86.24125671386719, -158.48655700683594, 9.89354419708252, -0.19580769538879395, 0.6533700227737427, 0.024056727066636086, 0.8450717926025391, -0.3672732710838318, 
79, 4128432745, -8.713763236999512, -86.22415924072266, -158.56629943847656, 9.904559135437012, -0.1769234538078308, 0.673038125038147, -0.1314827799797058, 1.025564432144165, -0.41796085238456726, 
80, 4128449412, -8.663980484008789, -86.20501708984375, -158.61331176757812, 9.911699295043945, -0.2041882872581482, 0.6671456694602966, -0.054708730429410934, 1.1409881114959717, -0.29448202252388, 
81, 4128466079, -8.60720157623291, -86.18269348144531, -158.67498779296875, 9.896524429321289, -0.17477023601531982, 0.650766909122467, -0.008375353179872036, 1.3247209787368774, -0.2988618016242981, 
82, 4128482746, -8.552375793457031, -86.15880584716797, -158.74234008789062, 9.892315864562988, -0.18063341081142426, 0.6328843832015991, -0.02976195514202118, 1.4294383525848389, -0.2814195454120636, 
83, 4128499413, -8.523311614990234, -86.1366958618164, -158.7800750732422, 9.877588272094727, -0.19217608869075775, 0.6402986645698547, -0.12501560151576996, 1.296623706817627, -0.2066560834646225, 
84, 4128516080, -8.517434120178223, -86.11843872070312, -158.7874755859375, 9.903085708618164, -0.19532161951065063, 0.6540732979774475, -0.1660599261522293, 1.0542762279510498, -0.15449580550193787, 
85, 4128532747, -8.514450073242188, -86.10324096679688, -158.7918701171875, 9.895297050476074, -0.15525229275226593, 0.6491236686706543, -0.057551734149456024, 0.8742702603340149, -0.16567574441432953, 
86, 4128549414, -8.49789810180664, -86.08914184570312, -158.8170623779297, 9.89421558380127, -0.144582599401474, 0.6545670628547668, -0.10288619995117188, 0.8329697251319885, -0.23138512670993805, 
87, 4128566081, -8.492298126220703, -86.07324981689453, -158.82955932617188, 9.906522750854492, -0.15148578584194183, 0.7105721235275269, -0.14378969371318817, 0.9233569502830505, -0.17545978724956512, 
88, 4128582748, -8.487373352050781, -86.05340576171875, -158.8445587158203, 9.899009704589844, -0.1892269104719162, 0.7870287299156189, -0.5507883429527283, 1.1625412702560425, -0.16316570341587067, 
89, 4128599415, -8.510512351989746, -86.03449249267578, -158.84347534179688, 9.886656761169434, -0.23042669892311096, 0.7484073042869568, -0.7067312598228455, 1.0843199491500854, -0.07051175832748413, 
90, 4128616082, -8.493969917297363, -86.015625, -158.87535095214844, 9.922879219055176, -0.13983625173568726, 0.7837121486663818, -0.9739741086959839, 1.0961273908615112, -0.2585729956626892, 
91, 4128632749, -8.456968307495117, -85.99738311767578, -158.9352569580078, 9.850361824035645, -0.2336660474538803, 0.6296446323394775, -1.1727415323257446, 1.0728839635849, -0.36203551292419434, 
92, 4128649416, -8.443848609924316, -85.98673248291016, -158.98585510253906, 9.831131935119629, -0.1758856326341629, 0.5681481957435608, -1.4774302244186401, 0.6131744980812073, -0.35937178134918213, 
93, 4128666083, -8.413606643676758, -85.9772720336914, -159.0415802001953, 9.894969940185547, -0.10056892782449722, 0.7031725645065308, -1.267764687538147, 0.5594006180763245, -0.42878222465515137, 
94, 4128682750, -8.356456756591797, -85.9667739868164, -159.11074829101562, 9.858920097351074, -0.26836201548576355, 0.6904246807098389, -0.6583361029624939, 0.6261729001998901, -0.48626992106437683, 
95, 4128699417, -8.304910659790039, -85.962890625, -159.16648864746094, 9.912299156188965, -0.22686035931110382, 0.7564288377761841, 0.14757396280765533, 0.2280106395483017, -0.47455206513404846, 
96, 4128716084, -8.192030906677246, -85.95964813232422, -159.27027893066406, 9.881790161132812, -0.2426329106092453, 0.7097320556640625, 0.8295248746871948, 0.21059401333332062, -0.6961916089057922, 
97, 4128732751, -7.991156578063965, -85.95736694335938, -159.46636962890625, 9.902308464050293, -0.15141132473945618, 0.7001150250434875, 1.0116952657699585, 0.22044208645820618, -1.0656547546386719, 
98, 4128749418, -7.751964092254639, -85.95262145996094, -159.70004272460938, 9.906318664550781, -0.15698088705539703, 0.7417666912078857, 0.5073299407958984, 0.3625926077365875, -1.2476074695587158, 
99, 4128766085, -7.528937339782715, -85.94918823242188, -159.93777465820312, 9.878034591674805, -0.16706518828868866, 0.7464109063148499, -0.13583694398403168, 0.2901342511177063, -1.2368757724761963, 
100, 4128782752, -7.312408924102783, -85.94884490966797, -160.16842651367188, 9.856816291809082, -0.15175285935401917, 0.7327728867530823, -0.7845938205718994, 0.10492883622646332, -1.2813009023666382, 
101, 4128799419, -7.093842029571533, -85.94923400878906, -160.41265869140625, 9.850882530212402, -0.14597982168197632, 0.6689402461051941, -0.6992266774177551, 0.05448461323976517, -1.2911360263824463, 
102, 4128816086, -6.896007061004639, -85.9484634399414, -160.63368225097656, 9.853206634521484, -0.16893894970417023, 0.7079459428787231, -0.6178808212280273, 0.10051063448190689, -1.1926169395446777, 
103, 4128832753, -6.684957027435303, -85.9420394897461, -160.86073303222656, 9.906560897827148, -0.1676061898469925, 0.7402366399765015, -0.3052009642124176, 0.4475115239620209, -1.1878786087036133, 
104, 4128849420, -6.512186527252197, -85.93451690673828, -161.05465698242188, 9.919604301452637, -0.17480091750621796, 0.7678837180137634, -0.46301355957984924, 0.4896443784236908, -1.0360721349716187, 
105, 4128866087, -6.349732875823975, -85.93038177490234, -161.23948669433594, 9.89875602722168, -0.1906462460756302, 0.6506536602973938, -0.5129327178001404, 0.27048930525779724, -1.0249688625335693, 
106, 4128882754, -6.155137538909912, -85.91817474365234, -161.44842529296875, 9.9784574508667, -0.04478348046541214, 0.8400212526321411, -0.4194207787513733, 0.7774543166160583, -1.1087098121643066, 
107, 4128899421, -5.970286846160889, -85.90150451660156, -161.6436004638672, 9.847787857055664, -0.2755730450153351, 0.7430897951126099, -0.6088138818740845, 1.0211591720581055, -1.0531302690505981, 
108, 4128916088, -5.886857986450195, -85.89320373535156, -161.74581909179688, 9.850321769714355, -0.25347790122032166, 0.7526423931121826, -0.9322895407676697, 0.47194600105285645, -0.7109829783439636, 
109, 4128932755, -5.791865348815918, -85.89239501953125, -161.85682678222656, 9.86118221282959, -0.2150145024061203, 0.7861335277557373, -0.6674796938896179, 0.03797723352909088, -0.7958506345748901, 
110, 4128949422, -5.703357696533203, -85.89282989501953, -161.96063232421875, 9.851051330566406, -0.2188713103532791, 0.7594051957130432, -0.6899548768997192, -0.058102406561374664, -0.7877569198608398, 
111, 4128966089, -5.614142894744873, -85.88957977294922, -162.06744384765625, 9.916719436645508, -0.16731198132038116, 0.7913884520530701, -0.6475403904914856, 0.168153777718544, -0.7707630395889282, 
112, 4128982756, -5.526417255401611, -85.88739013671875, -162.16746520996094, 9.926159858703613, -0.18787246942520142, 0.8038455843925476, -0.22986115515232086, 0.08796041458845139, -0.7458930611610413, 
113, 4128999423, -5.437224864959717, -85.8857192993164, -162.26736450195312, 9.908548355102539, -0.16038218140602112, 0.8074860572814941, -0.08870958536863327, 0.051820896565914154, -0.7500038146972656, 
114, 4129016090, -5.354123592376709, -85.888916015625, -162.36460876464844, 9.892987251281738, -0.17602092027664185, 0.775296688079834, -0.050341762602329254, -0.23649485409259796, -0.7507466673851013, 
115, 4129032757, -5.301063060760498, -85.89506530761719, -162.42906188964844, 9.868203163146973, -0.15327249467372894, 0.784376859664917, -0.18749776482582092, -0.4382588863372803, -0.6524707078933716, 
116, 4129049424, -5.269851207733154, -85.90428161621094, -162.46714782714844, 9.873947143554688, -0.15334253013134003, 0.7703478932380676, -0.18784353137016296, -0.6366036534309387, -0.5783604383468628, 
117, 4129066091, -5.256070137023926, -85.9134750366211, -162.485107421875, 9.868432998657227, -0.14694277942180634, 0.7749319076538086, 0.055137742310762405, -0.6509979367256165, -0.4891641139984131, 
118, 4129082758, -5.204777717590332, -85.92489624023438, -162.53785705566406, 9.887857437133789, -0.14281247556209564, 0.7586313486099243, 0.046147678047418594, -0.7647439241409302, -0.6641373038291931, 
119, 4129099425, -5.153143405914307, -85.9359130859375, -162.59068298339844, 9.902815818786621, -0.14546653628349304, 0.7653839588165283, 0.023109056055545807, -0.7492738366127014, -0.6655459403991699, 
120, 4129116092, -5.087951183319092, -85.94715881347656, -162.65611267089844, 9.903288841247559, -0.1558980494737625, 0.7832401990890503, 0.17380137741565704, -0.7593525648117065, -0.715388298034668, 
121, 4129132759, -5.033359527587891, -85.95756530761719, -162.7216796875, 9.923145294189453, -0.18474455177783966, 0.7865386009216309, 0.05899244546890259, -0.7211254835128784, -0.6743567585945129, 
122, 4129149426, -5.017022609710693, -85.96638488769531, -162.74591064453125, 9.908608436584473, -0.18883028626441956, 0.760310709476471, -0.17530614137649536, -0.6478604674339294, -0.5259439945220947, 
123, 4129166093, -4.976750373840332, -85.97003173828125, -162.7978515625, 9.908998489379883, -0.14393161237239838, 0.761210024356842, -0.09554816782474518, -0.322835236787796, -0.5981845855712891, 
124, 4129182760, -4.905588626861572, -85.97303771972656, -162.88107299804688, 9.86044979095459, -0.1540057212114334, 0.7274542450904846, -0.06842432171106339, -0.28523582220077515, -0.7257614135742188, 
125, 4129199427, -4.876465320587158, -85.97810363769531, -162.9237823486328, 9.863909721374512, -0.1925109475851059, 0.7413010001182556, -0.2325633317232132, -0.4190365970134735, -0.5740702748298645, 
126, 4129216094, -4.872251987457275, -85.98667907714844, -162.93850708007812, 9.874063491821289, -0.17043671011924744, 0.7441999912261963, -0.3210039734840393, -0.6474249958992004, -0.49995988607406616, 
127, 4129232761, -4.87265682220459, -85.99586486816406, -162.947509765625, 9.878518104553223, -0.15695056319236755, 0.7279927730560303, -0.3887879550457001, -0.6823607087135315, -0.4926602840423584, 
128, 4129249428, -4.885600566864014, -86.006591796875, -162.94586181640625, 9.900123596191406, -0.1627674251794815, 0.7605395913124084, -0.4618482291698456, -0.7693158388137817, -0.45476633310317993, 
129, 4129266095, -4.875009059906006, -86.0118408203125, -162.97406005859375, 9.927145004272461, -0.1419396549463272, 0.8210622072219849, -0.5076949000358582, -0.44823500514030457, -0.533025860786438, 
130, 4129282762, -4.865096569061279, -86.01356506347656, -163.00436401367188, 9.922542572021484, -0.15415599942207336, 0.8905772566795349, -0.6589762568473816, -0.24522879719734192, -0.5251755714416504, 
131, 4129299429, -4.893913269042969, -86.01351165771484, -163.00054931640625, 9.901153564453125, -0.18931418657302856, 0.7962374687194824, -1.0802539587020874, -0.16018180549144745, -0.3870718777179718, 
132, 4129316096, -4.8872151374816895, -86.0071792602539, -163.0296173095703, 9.899956703186035, -0.17571444809436798, 0.7820838689804077, -0.7758215069770813, 0.21672825515270233, -0.48748651146888733, 
133, 4129332763, -4.915001392364502, -85.99845886230469, -163.03053283691406, 9.845480918884277, -0.2234819084405899, 0.6601231694221497, -1.3524914979934692, 0.35586926341056824, -0.37590476870536804, 
134, 4129349430, -4.970977783203125, -85.99699401855469, -163.00315856933594, 9.850959777832031, -0.1206192597746849, 0.6106813549995422, -1.5926616191864014, -0.0923081710934639, -0.321016788482666, 
135, 4129366097, -4.945915222167969, -85.98838806152344, -163.04795837402344, 9.883886337280273, -0.18319423496723175, 0.7162521481513977, -1.1814498901367188, 0.36702361702919006, -0.5952904224395752, 
136, 4129382764, -4.925125598907471, -85.98419189453125, -163.08566284179688, 9.864434242248535, -0.26920875906944275, 0.7635620832443237, -1.2255676984786987, 0.10211142897605896, -0.608941912651062, 
137, 4129399431, -4.848933696746826, -85.98072814941406, -163.1680145263672, 9.909745216369629, -0.14762583374977112, 0.7991786003112793, -0.1268724948167801, 0.06679151207208633, -0.7789846062660217, 
138, 4129416098, -4.67806339263916, -85.97761535644531, -163.32154846191406, 9.872567176818848, -0.15262025594711304, 0.7171736359596252, 0.6707133650779724, 0.07588402926921844, -1.1266642808914185, 
139, 4129432765, -4.434772968292236, -85.96997833251953, -163.55987548828125, 9.94389820098877, -0.0925234705209732, 0.8028591275215149, 0.6460738778114319, 0.35871222615242004, -1.4149349927902222, 
140, 4129449432, -4.22423791885376, -85.95833587646484, -163.767333984375, 9.883538246154785, -0.14024676382541656, 0.8385557532310486, 0.408836305141449, 0.5946308374404907, -1.277471899986267, 
141, 4129466099, -4.07398796081543, -85.94831848144531, -163.91770935058594, 9.872270584106445, -0.13256242871284485, 0.822641134262085, 0.2837951183319092, 0.4613935351371765, -1.0457279682159424, 
142, 4129482766, -3.956639051437378, -85.94338989257812, -164.0360565185547, 9.858121871948242, -0.12636803090572357, 0.7816565036773682, 0.16710364818572998, 0.13708557188510895, -0.940920889377594, 
143, 4129499433, -3.8657121658325195, -85.93938446044922, -164.1331024169922, 9.85972785949707, -0.1262037456035614, 0.7470773458480835, 0.2254493683576584, 0.0722726359963417, -0.8288140892982483, 
144, 4129516100, -3.76643967628479, -85.9305191040039, -164.22784423828125, 9.887578010559082, -0.13368646800518036, 0.7803686261177063, 0.3124557435512543, 0.35352569818496704, -0.8455137014389038, 
145, 4129532767, -3.656541347503662, -85.91754913330078, -164.33912658691406, 9.893117904663086, -0.14835266768932343, 0.7610601782798767, 0.22584639489650726, 0.6016231775283813, -0.8840351700782776, 
146, 4129549434, -3.552096366882324, -85.90868377685547, -164.44554138183594, 9.893854141235352, -0.1415434330701828, 0.7571611404418945, 0.06544685363769531, 0.36923912167549133, -0.8926922678947449, 
147, 4129566101, -3.4615092277526855, -85.90384674072266, -164.53663635253906, 9.879344940185547, -0.17156235873699188, 0.7030149102210999, 0.2933614253997803, 0.09920438379049301, -0.8369205594062805, 
148, 4129582768, -3.3084757328033447, -85.88957977294922, -164.6934814453125, 9.9246187210083, -0.10527190566062927, 0.9074124097824097, 0.158574640750885, 0.6927914619445801, -1.0876432657241821, 
149, 4129599435, -3.1958742141723633, -85.8718032836914, -164.81021118164062, 9.845969200134277, -0.22344018518924713, 0.7810009717941284, -0.31136077642440796, 0.879623293876648, -0.9418173432350159, 
150, 4129616102, -3.1610360145568848, -85.85763549804688, -164.84828186035156, 9.918608665466309, -0.18246105313301086, 0.8172223567962646, -0.3162655830383301, 0.639017641544342, -0.6298802495002747, 
151, 4129632769, -3.0893173217773438, -85.84075164794922, -164.93472290039062, 9.879347801208496, -0.18319448828697205, 0.843755841255188, -0.35697701573371887, 0.8192157745361328, -0.7882564663887024, 
152, 4129649436, -3.001796245574951, -85.82026672363281, -165.0335235595703, 9.870210647583008, -0.15009967982769012, 0.8292588591575623, -0.6254749298095703, 1.0161774158477783, -0.8767738938331604, 
153, 4129666103, -2.952308177947998, -85.80138397216797, -165.09959411621094, 9.90474796295166, -0.13864023983478546, 0.8484068512916565, -0.9126573801040649, 0.9168385863304138, -0.7417565584182739, 
154, 4129682770, -2.962040662765503, -85.79034423828125, -165.1134796142578, 9.880322456359863, -0.16669373214244843, 0.8263404965400696, -1.230344533920288, 0.4228208661079407, -0.5327314138412476, 
155, 4129699437, -2.9707934856414795, -85.78588104248047, -165.130859375, 9.884631156921387, -0.1037384420633316, 0.8295071125030518, -1.438345193862915, 0.03778513893485069, -0.5769517421722412, 
156, 4129716104, -2.9649534225463867, -85.78202819824219, -165.16229248046875, 9.879425048828125, -0.11285775154829025, 0.8411700129508972, -1.4905438423156738, -0.013433861546218395, -0.6503705382347107, 
157, 4129732771, -2.9628076553344727, -85.7777099609375, -165.1847381591797, 9.851554870605469, -0.13413235545158386, 0.8507924675941467, -1.4841792583465576, 0.01017464604228735, -0.6337222456932068, 
158, 4129749438, -2.9467248916625977, -85.77237701416016, -165.23184204101562, 9.865528106689453, -0.14506886899471283, 0.8467862606048584, -1.4817204475402832, 0.07487232983112335, -0.6910818815231323, 
159, 4129766105, -2.9336700439453125, -85.76737976074219, -165.26893615722656, 9.878609657287598, -0.11880075931549072, 0.8181464672088623, -1.6921411752700806, 0.04671115428209305, -0.7014293074607849, 
160, 4129782772, -2.917987585067749, -85.76585388183594, -165.31158447265625, 9.88990592956543, -0.128149151802063, 0.8267391920089722, -1.653952956199646, -0.17394866049289703, -0.7217274904251099, 
161, 4129799439, -2.886401891708374, -85.76575469970703, -165.37118530273438, 9.896810531616211, -0.143111452460289, 0.8393354415893555, -1.6395454406738281, -0.24821260571479797, -0.7965676784515381, 
162, 4129816106, -2.857375144958496, -85.76455688476562, -165.42196655273438, 9.903937339782715, -0.12554118037223816, 0.8435588479042053, -1.515541672706604, -0.1824904978275299, -0.7763849496841431, 
163, 4129832773, -2.83318829536438, -85.76127624511719, -165.46978759765625, 9.87946605682373, -0.1355925351381302, 0.8328580856323242, -1.3255853652954102, -0.06797610223293304, -0.7360706329345703, 
164, 4129849440, -2.8023290634155273, -85.75813293457031, -165.52243041992188, 9.852980613708496, -0.18096806108951569, 0.8259405493736267, -1.4296495914459229, -0.08568728715181351, -0.7777808904647827, 
165, 4129866107, -2.805805206298828, -85.7590103149414, -165.54930114746094, 9.865730285644531, -0.17662274837493896, 0.807775616645813, -1.7619999647140503, -0.3309544324874878, -0.6654562950134277, 
166, 4129882774, -2.814976215362549, -85.7615966796875, -165.57098388671875, 9.86361312866211, -0.15256419777870178, 0.8163765668869019, -1.7165502309799194, -0.43896323442459106, -0.6459010243415833, 
167, 4129899441, -2.8040812015533447, -85.76811981201172, -165.6043701171875, 9.880595207214355, -0.12085200101137161, 0.8274819254875183, -1.307694673538208, -0.6761367917060852, -0.7213304042816162, 
168, 4129916108, -2.8060264587402344, -85.77831268310547, -165.6191864013672, 9.886847496032715, -0.14715823531150818, 0.8160322904586792, -1.206729531288147, -0.9012724757194519, -0.6701690554618835, 
169, 4129932775, -2.796854257583618, -85.79243469238281, -165.6482696533203, 9.895084381103516, -0.15377505123615265, 0.8797103762626648, -1.0543724298477173, -1.134950041770935, -0.7202163338661194, 
170, 4129949442, -2.8002748489379883, -85.80670166015625, -165.66006469726562, 9.886391639709473, -0.17665202915668488, 0.9501256346702576, -1.284335970878601, -1.158462405204773, -0.6877394318580627, 
171, 4129966109, -2.8413734436035156, -85.81844329833984, -165.64479064941406, 9.861649513244629, -0.20447541773319244, 0.9302765130996704, -1.6730341911315918, -1.02394437789917, -0.5480349063873291, 
172, 4129982776, -2.9081578254699707, -85.83171844482422, -165.6072540283203, 9.89371109008789, -0.16471026837825775, 0.8822116255760193, -1.9830504655838013, -1.1302884817123413, -0.46893012523651123, 
173, 4129999443, -2.923731565475464, -85.84131622314453, -165.61703491210938, 9.871291160583496, -0.15378013253211975, 0.8174588680267334, -1.6921669244766235, -0.9017078280448914, -0.6648671627044678, 
174, 4130016110, -2.9973785877227783, -85.85745239257812, -165.56954956054688, 9.808980941772461, -0.19655640423297882, 0.6603477001190186, -1.8988615274429321, -1.3198609352111816, -0.4536137282848358, 
175, 4130032777, -3.0734713077545166, -85.88372802734375, -165.5248260498047, 9.859936714172363, -0.0533769428730011, 0.7386018633842468, -2.0515005588531494, -1.9005646705627441, -0.49048319458961487, 
176, 4130049444, -3.108097553253174, -85.91117095947266, -165.50534057617188, 9.834216117858887, -0.21446555852890015, 0.7711392641067505, -1.3224477767944336, -1.9801820516586304, -0.6224654316902161, 
177, 4130066111, -3.176797389984131, -85.94792938232422, -165.45135498046875, 9.875398635864258, -0.18956796824932098, 0.8520551919937134, -0.9348891973495483, -2.5462100505828857, -0.4858216941356659, 
178, 4130082778, -3.1829726696014404, -85.98585510253906, -165.4446563720703, 9.87339973449707, -0.20363549888134003, 0.8183584213256836, -0.2673709988594055, -2.6050164699554443, -0.7159774899482727, 
179, 4130099445, -3.1465179920196533, -86.02842712402344, -165.46995544433594, 9.854063034057617, -0.14914636313915253, 0.7705298662185669, 0.12424080818891525, -2.884361505508423, -0.8895803093910217, 
180, 4130116112, -3.061105728149414, -86.06866455078125, -165.54550170898438, 9.893072128295898, -0.09861278533935547, 0.8412810564041138, 0.2065088003873825, -2.7309799194335938, -1.0751826763153076, 
181, 4130132779, -2.9841551780700684, -86.10414123535156, -165.60800170898438, 9.883729934692383, -0.16506926715373993, 0.8498544692993164, 0.22840766608715057, -2.4751217365264893, -1.0184249877929688, 
182, 4130149446, -2.963758945465088, -86.14324188232422, -165.6229248046875, 9.853792190551758, -0.14818163216114044, 0.8366245627403259, -0.1471961885690689, -2.6888468265533447, -0.8211048245429993, 
183, 4130166113, -2.962725877761841, -86.18248748779297, -165.62075805664062, 9.84834098815918, -0.11065930873155594, 0.7835235595703125, -0.3267667889595032, -2.7158937454223633, -0.7587506175041199, 
184, 4130182780, -2.994220733642578, -86.22296142578125, -165.58982849121094, 9.867318153381348, -0.09971249848604202, 0.7913210988044739, -0.30187129974365234, -2.793257236480713, -0.6299571394920349, 
185, 4130199447, -3.0553693771362305, -86.25911712646484, -165.52679443359375, 9.893784523010254, -0.13197261095046997, 0.7993825674057007, -0.22505879402160645, -2.555250883102417, -0.4977443814277649, 
186, 4130216114, -3.0876967906951904, -86.29302978515625, -165.4891815185547, 9.893128395080566, -0.11951591074466705, 0.7912432551383972, 0.01025148294866085, -2.427635669708252, -0.5951110124588013, 
187, 4130232781, -3.094143867492676, -86.32709503173828, -165.47274780273438, 9.90358829498291, -0.14641307294368744, 0.7796112895011902, 0.018345095217227936, -2.428237199783325, -0.6960506439208984, 
188, 4130249448, -3.0459418296813965, -86.36255645751953, -165.5068817138672, 9.897189140319824, -0.09805558621883392, 0.7582200765609741, 0.4757111072540283, -2.492243766784668, -0.8793608546257019, 
189, 4130266115, -3.0124905109405518, -86.3843765258789, -165.52528381347656, 9.893546104431152, -0.13848350942134857, 0.9062219262123108, 0.5944643616676331, -1.6908607482910156, -0.7698280811309814, 
190, 4130282782, -3.069706916809082, -86.40931701660156, -165.4655303955078, 9.827973365783691, -0.21168887615203857, 0.7963503003120422, -0.16885170340538025, -1.9154329299926758, -0.4873584508895874, 
191, 4130299449, -3.156320810317993, -86.4394302368164, -165.3722381591797, 9.89811897277832, -0.11632029712200165, 0.8223323225975037, 0.09627173840999603, -2.2433266639709473, -0.3875713646411896, 
192, 4130316116, -3.219609260559082, -86.47030639648438, -165.2936553955078, 9.87464714050293, -0.13175809383392334, 0.8297672867774963, 0.38463231921195984, -2.289135217666626, -0.46275749802589417, 
193, 4130332783, -3.308816432952881, -86.50228881835938, -165.191162109375, 9.87570571899414, -0.13650575280189514, 0.8385280966758728, 0.01486176997423172, -2.3606200218200684, -0.40010881423950195, 
194, 4130349450, -3.4277806282043457, -86.53717041015625, -165.07313537597656, 9.926494598388672, -0.12771795690059662, 0.8302744030952454, -0.20823124051094055, -2.5379114151000977, -0.3203508257865906, 
195, 4130366117, -3.5449841022491455, -86.57909393310547, -164.94851684570312, 9.909214973449707, -0.1133427545428276, 0.8164355158805847, -0.33176130056381226, -2.9797303676605225, -0.371665894985199, 
196, 4130382784, -3.7042019367218018, -86.62594604492188, -164.78924560546875, 9.872137069702148, -0.14036239683628082, 0.7639774680137634, -0.5656692981719971, -3.3019509315490723, -0.26625683903694153, 
197, 4130399451, -3.869662046432495, -86.67545318603516, -164.61846923828125, 9.860539436340332, -0.13232840597629547, 0.7436582446098328, -0.5252524614334106, -3.449812650680542, -0.26772958040237427, 
198, 4130416118, -4.070573329925537, -86.7223129272461, -164.4242401123047, 9.866924285888672, -0.12662582099437714, 0.7460904121398926, -0.539313793182373, -3.3314692974090576, -0.15481595695018768, 
199, 4130432785, -4.255021095275879, -86.77081298828125, -164.24066162109375, 9.848444938659668, -0.11964806914329529, 0.7447071075439453, -0.47036439180374146, -3.4202301502227783, -0.23276817798614502, 
200, 4130449452, -4.381341457366943, -86.8183822631836, -164.10565185546875, 9.886825561523438, -0.11261038482189178, 0.7431601881980896, -0.47491058707237244, -3.3584394454956055, -0.43905285000801086, 
201, 4130466119, -4.524158000946045, -86.86825561523438, -163.9530487060547, 9.896344184875488, -0.13225401937961578, 0.731148898601532, -0.4226095378398895, -3.4944941997528076, -0.40373295545578003, 
202, 4130482786, -4.694392681121826, -86.92648315429688, -163.786865234375, 9.884953498840332, -0.15181182324886322, 0.7228059768676758, -0.873969316482544, -4.0090532302856445, -0.39549848437309265, 
203, 4130499453, -4.946574687957764, -86.99482727050781, -163.535888671875, 9.88320255279541, -0.11828773468732834, 0.7125442028045654, -1.098183035850525, -4.639997482299805, -0.22221578657627106, 
204, 4130516120, -5.254101276397705, -87.06775665283203, -163.23851013183594, 9.858163833618164, -0.12641111016273499, 0.7085505127906799, -1.2072291374206543, -4.945953845977783, -0.11861241608858109, 
205, 4130532787, -5.601740837097168, -87.14789581298828, -162.89627075195312, 9.83452320098877, -0.12168972194194794, 0.6981679201126099, -1.2588385343551636, -5.404791831970215, -0.08851749449968338, 
206, 4130549454, -5.9646124839782715, -87.23522186279297, -162.5419921875, 9.850152015686035, -0.1148294061422348, 0.6827325820922852, -1.1271637678146362, -5.81790018081665, -0.1379244029521942, 
207, 4130566121, -6.434345722198486, -87.3326644897461, -162.08023071289062, 9.803352355957031, -0.14699101448059082, 0.656536340713501, -1.2146952152252197, -6.470805644989014, 0.02358289435505867, 
208, 4130582788, -7.090621471405029, -87.44786834716797, -161.43316650390625, 9.781070709228516, -0.12000705301761627, 0.6156215667724609, -1.7655092477798462, -7.596638202667236, 0.2745233476161957, 
209, 4130599455, -7.956173896789551, -87.5843505859375, -160.5896759033203, 9.80282974243164, -0.11832534521818161, 0.5976718664169312, -2.149815320968628, -8.952651977539062, 0.45148155093193054, 
210, 4130616122, -9.051236152648926, -87.74275970458984, -159.52288818359375, 9.831443786621094, -0.10379741340875626, 0.5684989094734192, -2.44441294670105, -10.300931930541992, 0.5355809330940247, 
211, 4130632789, -10.462115287780762, -87.92218017578125, -158.1326446533203, 9.766910552978516, -0.1140357181429863, 0.5840227603912354, -2.386579751968384, -11.672929763793945, 0.6362646222114563, 
212, 4130649456, -12.346772193908691, -88.12340545654297, -156.2617645263672, 9.668562889099121, -0.12304824590682983, 0.6262311935424805, -2.4238977432250977, -13.150068283081055, 0.7512913346290588, 
213, 4130666123, -15.095344543457031, -88.34353637695312, -153.54209899902344, 9.520658493041992, -0.13755671679973602, 0.6823718547821045, -2.837338447570801, -14.551750183105469, 1.1309231519699097, 
214, 4130682790, -19.62169647216797, -88.59375, -149.04588317871094, 9.318196296691895, -0.21010227501392365, 0.5491724014282227, -3.403815984725952, -17.037456512451172, 1.769551157951355, 
215, 4130699457, -27.135190963745117, -88.87342834472656, -141.55450439453125, 9.267232894897461, -0.20497699081897736, 0.4404473602771759, -3.3156967163085938, -19.891490936279297, 1.833980679512024, 
216, 4130716124, -42.08353042602539, -89.16490936279297, -126.6497802734375, 9.134055137634277, -0.17344355583190918, 0.3216015100479126, -4.3778204917907715, -23.504587173461914, 2.1137497425079346, 
217, 4130732791, -77.07276153564453, -89.36634826660156, -91.7294921875, 8.825664520263672, -0.06667155772447586, 0.1491420418024063, -6.213531017303467, -29.234296798706055, 2.8355329036712646, 
218, 4130749458, -121.73037719726562, -89.2020492553711, -47.164398193359375, 8.247064590454102, 0.06494997441768646, 0.257091224193573, -6.710121154785156, -34.240997314453125, 3.1547746658325195, 
219, 4130766125, -143.74374389648438, -88.6716079711914, -25.252288818359375, 7.242336273193359, 0.04079138860106468, 0.20877166092395782, -7.4493818283081055, -39.55186080932617, 5.872264385223389, 
220, 4130782792, -152.67337036132812, -87.98200225830078, -16.41653823852539, 5.821732044219971, 0.1462780088186264, 0.2678329646587372, -7.808843612670898, -43.81291961669922, 8.105280876159668, 
221, 4130799459, -156.87109375, -87.19104766845703, -12.328288078308105, 4.587923049926758, 0.04999822378158569, -0.047583505511283875, -8.55072021484375, -47.89424133300781, 10.397942543029785, 
222, 4130816126, -159.3918914794922, -86.2640380859375, -9.979641914367676, 3.5947794914245605, 0.16125692427158356, -0.13421931862831116, -11.649163246154785, -55.207000732421875, 12.75563907623291, 
223, 4130832793, -161.0164337158203, -85.21672821044922, -8.553572654724121, 3.1701536178588867, 0.11736098676919937, -0.3015492558479309, -12.919852256774902, -61.86083221435547, 14.786142349243164, 
224, 4130849460, -162.4376220703125, -84.1665267944336, -7.2877326011657715, 2.80349063873291, 0.1451447606086731, -0.5062317252159119, -10.459152221679688, -62.62726974487305, 12.590576171875, 
225, 4130866127, -163.84376525878906, -83.07099914550781, -5.979981899261475, 2.7835590839385986, 0.10901399701833725, -0.45530474185943604, -7.0968017578125, -65.98784637451172, 10.22865104675293, 
226, 4130882794, -165.10317993164062, -81.88472747802734, -4.7800679206848145, 2.882354497909546, 0.011196482926607132, -0.2985643148422241, -4.951834201812744, -71.64549255371094, 9.516313552856445, 
227, 4130899461, -166.0687255859375, -80.63859558105469, -3.8643600940704346, 2.980508327484131, -0.2919989824295044, -0.3471682071685791, -4.367181777954102, -75.04214477539062, 10.090372085571289, 
228, 4130916128, -166.8592071533203, -79.32654571533203, -3.0945873260498047, 3.7379086017608643, -0.4460739195346832, -0.48178887367248535, -2.740671396255493, -78.95877838134766, 10.194320678710938, 
229, 4130932795, -167.71766662597656, -77.92757415771484, -2.193612575531006, 4.760445594787598, -0.12078246474266052, -0.527395486831665, 0.6975347995758057, -84.76044464111328, 7.653813362121582, 
230, 4130949462, -168.61001586914062, -76.4679946899414, -1.2045409679412842, 5.6397294998168945, -0.04680893197655678, -0.5687172412872314, 3.5308029651641846, -88.96410369873047, 4.701938152313232, 
231, 4130966129, -169.5775604248047, -74.92340087890625, -0.06442877650260925, 5.929173946380615, 0.2663544714450836, -0.5364317893981934, 7.436288356781006, -94.77850341796875, 0.578910231590271, 
232, 4130982796, -170.45562744140625, -73.31856536865234, 1.1155483722686768, 5.811645984649658, -0.035820819437503815, -1.0789964199066162, 14.582380294799805, -98.7960205078125, -2.683856964111328, 
233, 4130999463, -171.19178771972656, -71.70433044433594, 2.2123472690582275, 6.302206039428711, -0.46687552332878113, -1.6618380546569824, 17.77881622314453, -99.40267181396484, -4.342405319213867, 
234, 4131016130, -171.85382080078125, -70.141845703125, 3.2594940662384033, 7.2422075271606445, -0.7391789555549622, -2.309566020965576, 19.432924270629883, -96.42433166503906, -6.961462497711182, 
235, 4131032797, -172.56768798828125, -68.62129974365234, 4.256124019622803, 7.872106552124023, -0.5611786842346191, -2.4800946712493896, 12.907182693481445, -93.91925048828125, -8.9788179397583, 
236, 4131049464, -173.22975158691406, -67.14918518066406, 5.208395481109619, 7.943018436431885, 0.011082520708441734, -2.3164901733398438, 12.97503662109375, -90.99736022949219, -10.907304763793945, 
237, 4131066131, -173.78103637695312, -65.76478576660156, 6.156253814697266, 8.265335083007812, -0.18286138772964478, -2.6338694095611572, 18.83089828491211, -85.82247924804688, -13.633391380310059, 
238, 4131082798, -174.2755126953125, -64.42545318603516, 7.083580493927002, 8.885910987854004, -1.1812880039215088, -4.147983074188232, 20.569896697998047, -83.11827850341797, -15.384575843811035, 
239, 4131099465, -174.6681671142578, -63.05082321166992, 7.847745895385742, 9.000240325927734, -0.802399218082428, -5.388508319854736, 17.318422317504883, -84.79916381835938, -12.714897155761719, 
240, 4131116132, -174.98916625976562, -61.65927505493164, 8.566899299621582, 9.300159454345703, -0.5207616090774536, -5.518980503082275, 18.71822166442871, -85.66325378417969, -12.889410972595215, 
241, 4131132799, -175.26734924316406, -60.32644271850586, 9.274538040161133, 9.867377281188965, -0.8677217960357666, -4.978921413421631, 20.195951461791992, -82.10368347167969, -14.196026802062988, 
242, 4131149466, -175.50730895996094, -59.07841873168945, 9.871465682983398, 9.987834930419922, -1.4587215185165405, -5.1019792556762695, 16.270719528198242, -76.77894592285156, -12.470857620239258, 
243, 4131166133, -175.87083435058594, -57.862144470214844, 10.494911193847656, 10.208160400390625, -1.3751140832901, -5.821834087371826, 9.79815673828125, -74.94943237304688, -14.536406517028809, 
244, 4131182800, -176.35702514648438, -56.72341537475586, 11.186389923095703, 10.182631492614746, -0.7808629274368286, -6.8003411293029785, 5.443972587585449, -70.40872955322266, -18.280803680419922, 
245, 4131199467, -176.91659545898438, -55.719600677490234, 11.907604217529297, 10.361540794372559, -0.625241756439209, -7.460641860961914, 2.0936198234558105, -62.24405288696289, -21.035566329956055, 
246, 4131216134, -177.4559326171875, -54.81843185424805, 12.521531105041504, 11.18565559387207, -0.9326732754707336, -7.427455902099609, -2.388528823852539, -55.71554183959961, -18.861513137817383, 
247, 4131232801, -177.82118225097656, -53.92410659790039, 13.026522636413574, 11.318686485290527, -1.0118108987808228, -8.128610610961914, 2.3986761569976807, -55.02954864501953, -15.995430946350098, 
248, 4131249468, -177.7617950439453, -52.91843032836914, 13.27291202545166, 11.689353942871094, -0.26218652725219727, -9.804146766662598, 15.10578441619873, -61.317848205566406, -7.066811561584473, 
249, 4131266135, -177.54798889160156, -51.950111389160156, 13.400786399841309, 12.57091999053955, 0.572777509689331, -10.90211009979248, 18.58229637145996, -58.88071060180664, -2.8761911392211914, 
250, 4131282802, -177.40078735351562, -51.23281478881836, 13.508963584899902, 12.97802448272705, -0.5770010948181152, -12.319046974182129, 13.6171875, -43.76662826538086, -2.671373128890991, 
251, 4131299469, -177.24276733398438, -50.75933074951172, 13.6754789352417, 14.70154857635498, -1.3403187990188599, -13.794208526611328, 16.944860458374023, -29.19308853149414, -5.491513252258301, 
252, 4131316136, -177.13174438476562, -50.21364974975586, 13.795392990112305, 16.583892822265625, -0.6971914768218994, -14.897356033325195, 11.894649505615234, -33.379634857177734, -3.52673077583313, 
253, 4131332803, -177.0175018310547, -49.64675521850586, 13.813616752624512, 17.541807174682617, 0.16762137413024902, -15.245698928833008, 7.378108501434326, -34.41767120361328, 0.4744965136051178, 
254, 4131349470, -176.729248046875, -49.3783073425293, 13.674835205078125, 17.753643035888672, 0.14685970544815063, -15.020012855529785, 10.672844886779785, -16.180702209472656, 5.75402307510376, 
255, 4131366137, -176.19430541992188, -49.45564270019531, 13.335125923156738, 18.33207893371582, -1.4807019233703613, -15.183483123779297, 16.35390853881836, 5.05418062210083, 12.459772109985352, 
256, 4131382804, -175.74940490722656, -49.72663497924805, 13.037788391113281, 18.424325942993164, -3.045243263244629, -15.073298454284668, 12.835359573364258, 16.62187385559082, 9.890061378479004, 
257, 4131399471, -175.56871032714844, -50.121219635009766, 12.844103813171387, 17.652162551879883, -2.5035288333892822, -14.896904945373535, 1.6328065395355225, 23.74833106994629, 5.100645542144775, 
258, 4131416138, -175.35902404785156, -50.71318435668945, 12.657383918762207, 17.17235565185547, -1.6289759874343872, -14.35336685180664, 3.602910280227661, 35.54983901977539, 3.6942195892333984, 
259, 4131432805, -175.10885620117188, -51.505313873291016, 12.413799285888672, 16.764312744140625, -1.3277937173843384, -13.81723690032959, 3.2861292362213135, 47.713260650634766, 4.5664286613464355, 
260, 4131449472, -174.7940216064453, -52.50209426879883, 12.013526916503906, 16.07340431213379, -0.9956423044204712, -13.051161766052246, -0.380123108625412, 60.47825241088867, 8.828283309936523, 
261, 4131466139, -174.27586364746094, -53.67876052856445, 11.423664093017578, 15.673514366149902, -0.8281581401824951, -12.26451587677002, 2.459038496017456, 71.92269134521484, 13.802373886108398, 
262, 4131482806, -173.52871704101562, -55.00944519042969, 10.705328941345215, 15.82361888885498, -0.7693021893501282, -10.901514053344727, 9.490195274353027, 81.6990737915039, 15.877405166625977, 
263, 4131499473, -172.82484436035156, -56.51039123535156, 10.00094985961914, 15.726661682128906, -1.427450180053711, -10.061142921447754, 6.994292736053467, 91.87185668945312, 12.303799629211426, 
264, 4131516140, -172.09173583984375, -58.12800598144531, 9.157546997070312, 15.322977066040039, -0.9112520217895508, -9.750911712646484, 1.0957694053649902, 99.41365814208984, 13.734879493713379, 
265, 4131532807, -171.30447387695312, -59.84980773925781, 8.183157920837402, 15.080692291259766, 0.0720779225230217, -9.601835250854492, -3.153127908706665, 106.18482208251953, 14.286260604858398, 
266, 4131549474, -170.5030975341797, -61.661678314208984, 7.199441909790039, 15.12553596496582, 0.13669544458389282, -9.479357719421387, -3.666748285293579, 111.54093170166016, 10.731497764587402, 
267, 4131566141, -169.63844299316406, -63.598419189453125, 6.27055549621582, 15.266648292541504, 0.04920179396867752, -9.034178733825684, 2.164374351501465, 118.5575942993164, 4.700541973114014, 
268, 4131582808, -168.65972900390625, -65.59603118896484, 5.315572261810303, 15.585416793823242, -0.9712883234024048, -8.321063995361328, 6.769862651824951, 122.06124877929688, 1.128164291381836, 
269, 4131599475, -167.49465942382812, -67.68788146972656, 4.1759724617004395, 15.920994758605957, -1.1869196891784668, -7.773391246795654, 6.9470977783203125, 128.16200256347656, 0.16059452295303345, 
270, 4131616142, -166.02655029296875, -69.82303619384766, 2.7494161128997803, 16.44300651550293, -1.2690191268920898, -6.909994602203369, 8.127093315124512, 131.5972900390625, 0.4273548722267151, 
271, 4131632809, -164.4166259765625, -71.95043182373047, 1.0298974514007568, 16.28005599975586, -2.5637149810791016, -6.639759063720703, -1.0665397644042969, 131.85301208496094, -0.3097277581691742, 
272, 4131649476, -162.3163604736328, -73.87593078613281, -1.468484878540039, 14.794957160949707, -3.9788575172424316, -7.547804355621338, -17.454065322875977, 123.13936614990234, 8.679267883300781, 
273, 4131666143, -159.7723846435547, -75.42179107666016, -4.965639591217041, 11.988923072814941, -3.2349867820739746, -8.370699882507324, -49.8873291015625, 105.71292114257812, 21.859548568725586, 
274, 4131682810, -156.650634765625, -76.60857391357422, -8.916227340698242, 10.113853454589844, -2.2547974586486816, -7.7194437980651855, -42.86985778808594, 87.52311706542969, 26.140790939331055, 
275, 4131699477, -152.5785675048828, -77.26307678222656, -13.394389152526855, 10.583548545837402, -1.8265565633773804, -4.945206642150879, -18.85056495666504, 62.01558303833008, 37.841392517089844, 
276, 4131716144, -148.197509765625, -77.7271499633789, -18.094472885131836, 11.563726425170898, 0.5299272537231445, -1.8814358711242676, -14.15287971496582, 55.009883880615234, 39.188167572021484, 
277, 4131732811, -143.62222290039062, -78.34439086914062, -23.021751403808594, 8.063599586486816, 2.135284662246704, 1.126258134841919, -16.355085372924805, 65.60896301269531, 29.901628494262695, 
278, 4131749478, -139.9393768310547, -79.1435317993164, -27.394432067871094, 0.682402491569519, 1.51531183719635, 3.6701507568359375, -38.04106140136719, 69.82447814941406, 10.587972640991211, 
279, 4131766145, -138.1745147705078, -80.22798919677734, -30.521137237548828, -8.453441619873047, -0.8538659811019897, 4.097609519958496, -80.37592315673828, 71.47252655029297, -17.217512130737305, 
280, 4131782812, -132.59194946289062, -81.48885345458984, -37.797157287597656, -13.531563758850098, -4.8487467765808105, -0.1273098587989807, -97.75440216064453, 102.62242889404297, -3.7551262378692627, 
281, 4131799479, -125.977783203125, -82.17674255371094, -44.817657470703125, -9.19740104675293, 1.252174973487854, -1.6377991437911987, -21.765308380126953, 72.59288024902344, 5.696270942687988, 
282, 4131816146, -125.18350219726562, -81.9349136352539, -45.8443717956543, 5.023004531860352, 5.518881797790527, -2.2981925010681152, -15.100029945373535, -1.2353794574737549, 16.51661491394043, 
283, 4131832813, -127.10994720458984, -81.10552215576172, -43.63241195678711, 4.967850685119629, 4.433615684509277, -1.5530563592910767, 13.748014450073242, -44.80706787109375, 28.636577606201172, 
284, 4131849480, -129.31930541992188, -80.56739807128906, -40.63585662841797, 0.595807671546936, 1.7191338539123535, 4.267949104309082, 42.950904846191406, -42.09738540649414, 7.816155910491943, 
285, 4131866147, -132.96011352539062, -80.41327667236328, -37.065650939941406, -0.199228435754776, -3.340846538543701, 5.8533220291137695, -8.778167724609375, -32.56352996826172, -16.20201873779297, 
286, 4131882814, -136.94390869140625, -80.41255950927734, -33.58241271972656, -1.3461800813674927, -2.931962490081787, 3.671332836151123, -34.119808197021484, -24.72757911682129, -24.632808685302734, 
287, 4131899481, -140.3726806640625, -80.43289947509766, -30.52397918701172, -0.31385478377342224, -0.046759944409132004, 1.5045469999313354, -25.703346252441406, -19.429813385009766, -23.936918258666992, 
288, 4131916148, -143.87806701660156, -80.19303894042969, -27.456890106201172, -0.05794479325413704, 0.31077906489372253, -0.35376569628715515, -29.74726676940918, -30.58771514892578, -15.836881637573242, 
289, 4131932815, -147.31048583984375, -79.64945983886719, -24.595935821533203, 0.2525123357772827, 0.4338371753692627, -0.6262755393981934, -37.638648986816406, -44.098567962646484, -6.603967666625977, 
290, 4131949482, -150.00555419921875, -78.9422378540039, -22.493709564208984, -0.028337694704532623, 0.22599855065345764, 0.37917858362197876, -38.43023681640625, -48.63422393798828, 1.8244110345840454, 
291, 4131966149, -152.34271240234375, -78.3236083984375, -20.652355194091797, -1.0216695070266724, -0.27114322781562805, 1.1743628978729248, -32.5146598815918, -43.22951126098633, -1.4266421794891357, 
292, 4131982816, -154.81809997558594, -77.80487823486328, -18.397672653198242, -0.5098994374275208, -0.3083513081073761, 1.160691499710083, -16.359895706176758, -40.59220504760742, -11.591263771057129, 
293, 4131999483, -157.48544311523438, -77.24763488769531, -15.605913162231445, 0.9477222561836243, -0.05303873121738434, 0.06289144605398178, 3.3077359199523926, -45.49421310424805, -19.953121185302734, 
294, 4132016150, -159.37033081054688, -76.4000244140625, -13.424866676330566, 2.050821304321289, 0.3683460056781769, -0.49836981296539307, 14.137018203735352, -58.53053665161133, -9.427889823913574, 
295, 4132032817, -160.93853759765625, -75.4563217163086, -11.469905853271484, 1.1238760948181152, 1.0493632555007935, -0.13374197483062744, 19.49221420288086, -63.21216583251953, -7.975061416625977, 
296, 4132049484, -162.9434051513672, -74.4643783569336, -9.461443901062012, 0.2872512638568878, -1.3316059112548828, 0.44316497445106506, -4.100147247314453, -66.54331970214844, -11.63465404510498, 
297, 4132066151, -165.34539794921875, -73.39405059814453, -7.33331823348999, 0.04132743924856186, -1.8837295770645142, 0.6664643883705139, -21.607627868652344, -71.692138671875, -16.830556869506836, 
298, 4132082818, -167.5753936767578, -72.25251007080078, -5.470198154449463, 0.7462889552116394, -0.5862108469009399, 0.645473062992096, -27.188819885253906, -74.5846939086914, -16.45456886291504, 
299, 4132099485, -169.59762573242188, -71.05227661132812, -3.8928723335266113, 1.336441159248352, -0.5640329122543335, 0.8329716324806213, -31.700773239135742, -76.76304626464844, -15.347436904907227, 
300, 4132116152, -171.58633422851562, -69.86518096923828, -2.426057815551758, 0.9476575255393982, -0.7595150470733643, 1.3890970945358276, -36.57619857788086, -75.36087799072266, -17.798301696777344, 
301, 4132132819, -173.6451873779297, -68.69824981689453, -1.0017385482788086, -0.15170061588287354, -0.33497995138168335, 0.7569475769996643, -43.79521560668945, -73.61846923828125, -21.38610076904297, 
302, 4132149486, -175.56761169433594, -67.47624206542969, 0.18525396287441254, -1.0271599292755127, 0.22496172785758972, 0.13497459888458252, -49.468536376953125, -75.79081726074219, -19.97278594970703, 
303, 4132166153, -177.17190551757812, -66.24439239501953, 1.227398157119751, -1.5763907432556152, 0.04465438053011894, 0.1229880154132843, -38.95677185058594, -75.60462951660156, -20.240686416625977, 
304, 4132182820, -178.4552459716797, -65.11567687988281, 2.2053380012512207, -1.659843921661377, 0.37477928400039673, 0.736297070980072, -23.72795867919922, -68.8724136352539, -21.957239151000977, 
305, 4132199487, -179.4151611328125, -64.12285614013672, 3.1253011226654053, -1.5695688724517822, 0.5206378698348999, 1.6951526403427124, -7.922024250030518, -60.26924133300781, -22.93691062927246, 
306, 4132216154, 179.97947692871094, -63.17521286010742, 3.7471868991851807, -1.2406615018844604, 0.04603274166584015, 1.511125922203064, -3.0819385051727295, -57.21699905395508, -16.662092208862305, 
307, 4132232821, 179.51962280273438, -62.23463439941406, 4.26729679107666, -1.5123616456985474, -0.2095189392566681, 1.6525051593780518, -0.05519602820277214, -56.64950180053711, -14.935213088989258, 
308, 4132249488, 178.72323608398438, -61.1276741027832, 4.880369663238525, -4.257696151733398, 1.3650014400482178, -0.02786649763584137, -15.595258712768555, -66.42213439941406, -18.844402313232422, 
309, 4132266155, 177.67852783203125, -59.72074890136719, 5.309735298156738, -6.3197784423828125, 1.6326675415039062, -1.449999451637268, -40.46451950073242, -84.2334213256836, -15.725543022155762, 
310, 4132282822, 177.62745666503906, -58.31802749633789, 5.255976676940918, -0.19697415828704834, 0.9389975070953369, -1.2211445569992065, -6.015114784240723, -84.37815856933594, -2.139866828918457, 
311, 4132299489, 178.41026306152344, -56.36763381958008, 4.654746055603027, 11.341798782348633, -2.0089025497436523, -5.2460036277771, 16.407577514648438, -117.83318328857422, 15.062829971313477, 
312, 4132316156, 178.49732971191406, -53.52126693725586, 4.012763977050781, 15.366456985473633, 2.3746509552001953, -14.48441219329834, -26.50349235534668, -171.53305053710938, 17.146663665771484, 
313, 4132332823, 178.65786743164062, -51.20999526977539, 3.9062154293060303, 15.034544944763184, 2.9402122497558594, -18.281145095825195, 4.383880138397217, -138.929931640625, 0.11067360639572144, 
314, 4132349490, 178.48013305664062, -49.1362190246582, 4.8236260414123535, 19.810565948486328, -2.8543176651000977, -15.709193229675293, 31.437721252441406, -123.6633529663086, -38.68595886230469, 
315, 4132366157, 178.41778564453125, -47.07344436645508, 5.860283374786377, 18.808666229248047, -3.78165864944458, -14.4320068359375, 42.37155532836914, -122.7632827758789, -45.228607177734375, 
316, 4132382824, 179.1082305908203, -44.84104919433594, 6.063450336456299, 20.19330406188965, -1.4562978744506836, -15.816534042358398, 49.97756576538086, -133.91822814941406, -11.746362686157227, 
317, 4132399491, -179.93922424316406, -42.862396240234375, 6.0246171951293945, 17.775253295898438, -1.2987830638885498, -15.66161060333252, 55.32048797607422, -118.94078063964844, 0.43108147382736206, 
318, 4132416158, -179.4173126220703, -41.10057067871094, 5.985292434692383, 10.42075252532959, -1.4507977962493896, -11.989232063293457, 29.515457153320312, -105.92415618896484, 1.9536343812942505, 
319, 4132432825, -179.28016662597656, -39.28287124633789, 6.235078811645508, 3.1615757942199707, -1.163867712020874, -13.479854583740234, 17.677547454833984, -109.40911865234375, -10.604287147521973, 
320, 4132449492, -178.3168487548828, -37.45025634765625, 5.984795093536377, 5.202486515045166, -0.4910831153392792, -14.03477954864502, 48.24774169921875, -109.86858367919922, 13.679389953613281, 
321, 4132466159, -177.46315002441406, -35.40935516357422, 5.784517765045166, 10.124221801757812, -0.7053788304328918, -14.826424598693848, 43.85471725463867, -122.16963958740234, 13.773191452026367, 
322, 4132482826, -177.12791442871094, -33.38954162597656, 5.694067478179932, 12.252952575683594, -1.1963825225830078, -14.323657989501953, 16.82382583618164, -120.99755096435547, 9.79697036743164, 
323, 4132499493, -177.3084716796875, -31.767671585083008, 5.754288196563721, 13.075773239135742, -0.8607016801834106, -13.118844985961914, -9.110846519470215, -97.51911926269531, 1.2890602350234985, 
324, 4132516160, -177.80136108398438, -30.658916473388672, 6.070756912231445, 11.283553123474121, -0.36691004037857056, -14.591588973999023, -19.95309829711914, -67.35972595214844, -13.776140213012695, 
325, 4132532827, -177.7152099609375, -30.04022789001465, 6.3017048835754395, 9.929512023925781, 0.45404231548309326, -14.430953979492188, 11.950976371765137, -37.778202056884766, -10.8823881149292, 
326, 4132549494, -177.33567810058594, -29.877546310424805, 6.570143222808838, 9.22177505493164, -1.7933517694473267, -13.305938720703125, 30.602153778076172, -10.581586837768555, -13.899239540100098, 
327, 4132566161, -176.98121643066406, -30.077295303344727, 6.860480308532715, 9.41271686553955, -2.9909515380859375, -12.840825080871582, 29.755836486816406, 10.9865083694458, -16.04736328125, 
328, 4132582828, -176.74075317382812, -30.467405319213867, 7.102835655212402, 10.01711654663086, -1.3803309202194214, -12.252223014831543, 21.533893585205078, 22.436182022094727, -14.210226058959961, 
329, 4132599495, -176.54885864257812, -30.792278289794922, 7.213129997253418, 7.921022415161133, -0.16117337346076965, -13.083260536193848, 14.659132957458496, 18.865568161010742, -7.214575290679932, 
330, 4132616162, -176.5635528564453, -31.02488136291504, 7.2625813484191895, 6.718254089355469, -0.3533819019794464, -14.657533645629883, 0.4241786599159241, 13.51758098602295, -3.7648391723632812, 
331, 4132632829, -176.61964416503906, -31.215539932250977, 7.248353004455566, 7.717928409576416, -0.9835301637649536, -14.327858924865723, -4.021324157714844, 11.216761589050293, -0.33419468998908997, 
332, 4132649496, -176.6547393798828, -31.485916137695312, 7.216723442077637, 8.771994590759277, -1.4933619499206543, -13.100112915039062, -3.308574914932251, 16.04887580871582, 0.28426921367645264, 
333, 4132666163, -176.70408630371094, -31.963748931884766, 7.286820888519287, 9.81102180480957, -1.111341118812561, -12.21219539642334, -0.9643721580505371, 28.17197036743164, -5.616253852844238, 
334, 4132682830, -176.81912231445312, -32.61832046508789, 7.386542320251465, 9.488306045532227, -0.6665761470794678, -13.220688819885254, -3.920135021209717, 38.67108154296875, -7.65292501449585, 
335, 4132699497, -176.98333740234375, -33.35826873779297, 7.465285778045654, 8.977686882019043, -0.2860574722290039, -14.428807258605957, -7.493293285369873, 43.85867691040039, -6.739274501800537, 
336, 4132716164, -177.13198852539062, -34.0941276550293, 7.522531509399414, 8.920517921447754, 0.021805906668305397, -14.163961410522461, -7.220730781555176, 43.692657470703125, -5.500225067138672, 
337, 4132732831, -177.25942993164062, -34.82829666137695, 7.585906982421875, 9.427075386047363, -0.1392461657524109, -13.430490493774414, -5.69941520690918, 43.59376907348633, -5.6627888679504395, 
338, 4132749498, -177.47076416015625, -35.51041793823242, 7.695191860198975, 9.75745677947998, -0.26469045877456665, -12.574519157409668, -9.104026794433594, 40.387847900390625, -7.609708309173584, 
339, 4132766165, -177.69329833984375, -36.11530685424805, 7.790017127990723, 8.714195251464844, -0.15139754116535187, -12.426265716552734, -10.221900939941406, 35.81393814086914, -6.513393402099609, 
340, 4132782832, -177.8604278564453, -36.67311477661133, 7.848647117614746, 8.084985733032227, -0.3956054151058197, -12.527570724487305, -8.137276649475098, 33.082923889160156, -4.498607158660889, 
341, 4132799499, -178.0069122314453, -37.19198226928711, 7.856415748596191, 7.785256385803223, -0.8346368074417114, -12.607022285461426, -8.705788612365723, 30.857439041137695, -1.8639966249465942, 
342, 4132816166, -178.11651611328125, -37.7115478515625, 7.849369525909424, 8.546101570129395, -0.38978663086891174, -12.270694732666016, -7.028520584106445, 30.9334659576416, -1.0907334089279175, 
343, 4132832833, -178.15414428710938, -38.21625518798828, 7.841518402099609, 9.576950073242188, 0.17161913216114044, -11.860093116760254, -2.744678497314453, 30.050111770629883, -0.9847474694252014, 
344, 4132849500, -178.11351013183594, -38.716312408447266, 7.871056079864502, 10.112847328186035, 0.14226014912128448, -11.26815414428711, 3.3465850353240967, 29.712665557861328, -2.7326018810272217, 
345, 4132866167, -178.11080932617188, -39.214744567871094, 7.941758155822754, 9.314364433288574, -0.1490774154663086, -10.907353401184082, 2.6386349201202393, 29.547664642333984, -4.646977424621582, 
346, 4132882834, -178.1458282470703, -39.73897933959961, 7.979306221008301, 8.38387680053711, -0.8892285227775574, -10.758816719055176, -0.8607432246208191, 31.144014358520508, -3.1302154064178467, 
347, 4132899501, -178.13502502441406, -40.30352020263672, 7.93361759185791, 8.294339179992676, -1.6088625192642212, -10.358948707580566, -1.3067649602890015, 33.68820571899414, 0.6324120163917542, 
348, 4132916168, -178.07704162597656, -40.889549255371094, 7.860636234283447, 8.663702964782715, -1.0452932119369507, -10.378449440002441, 0.4331701993942261, 35.02128219604492, 1.7885488271713257, 
349, 4132932835, -177.97486877441406, -41.52141189575195, 7.820340633392334, 9.129920959472656, -0.4764133393764496, -10.29183292388916, 4.339625835418701, 37.721832275390625, 0.13770094513893127, 
350, 4132949502, -177.86279296875, -42.20013427734375, 7.812596797943115, 9.437268257141113, -0.26223915815353394, -10.190004348754883, 6.215463638305664, 40.478397369384766, -1.5078027248382568, 
351, 4132966169, -177.74644470214844, -42.91899490356445, 7.799264907836914, 9.359189987182617, -0.16116546094417572, -10.072745323181152, 6.243041038513184, 42.891048431396484, -1.4367282390594482, 
352, 4132982836, -177.59494018554688, -43.703155517578125, 7.728996276855469, 8.976326942443848, -0.43734151124954224, -9.875787734985352, 6.002120494842529, 46.90460205078125, 0.7808285355567932, 
353, 4132999503, -177.4127655029297, -44.55855178833008, 7.595517158508301, 8.626593589782715, -0.9230939149856567, -9.882797241210938, 5.158554553985596, 51.296104431152344, 3.135350465774536, 
354, 4133016170, -177.21768188476562, -45.47349548339844, 7.445826530456543, 8.821281433105469, -0.7609910368919373, -9.582706451416016, 5.15548849105835, 54.90751647949219, 3.396876096725464, 
355, 4133032837, -176.99720764160156, -46.44339370727539, 7.296911239624023, 9.28624153137207, -0.5243184566497803, -8.958039283752441, 6.608879089355469, 58.21023178100586, 2.8918814659118652, 
356, 4133049504, -176.7897186279297, -47.50407028198242, 7.160851001739502, 9.378735542297363, -0.27790021896362305, -8.350713729858398, 6.284262657165527, 63.625919342041016, 1.7391082048416138, 
357, 4133066171, -176.66073608398438, -48.685829162597656, 7.04661750793457, 9.235016822814941, -0.3098895251750946, -7.935177326202393, 2.4426560401916504, 70.8262939453125, 0.1459885686635971, 
358, 4133082838, -176.55030822753906, -49.99001693725586, 6.9339776039123535, 8.701824188232422, -0.6392788887023926, -7.6319355964660645, 1.303605556488037, 78.14791870117188, -0.6094032526016235, 
359, 4133099505, -176.4029083251953, -51.39731216430664, 6.799194812774658, 8.157719612121582, -0.9584181904792786, -7.406659126281738, 2.392817497253418, 84.3667221069336, -0.44879695773124695, 
360, 4133116172, -176.22244262695312, -52.881591796875, 6.637200832366943, 7.600348472595215, -1.044510006904602, -7.264803886413574, 2.9577536582946777, 89.03353881835938, -0.14962075650691986, 
361, 4133132839, -176.05335998535156, -54.40790939331055, 6.4387431144714355, 7.336165904998779, -0.6681315302848816, -6.290435791015625, 0.3588893413543701, 91.62947845458984, 0.49671536684036255, 
362, 4133149506, -175.89027404785156, -55.97092819213867, 6.2141242027282715, 6.500828742980957, -0.5086201429367065, -5.490830421447754, -1.4765669107437134, 93.87702178955078, 0.7074512243270874, 
363, 4133166173, -175.70375061035156, -57.56133270263672, 5.9633612632751465, 5.808261871337891, -0.30342674255371094, -4.783925533294678, -1.589050054550171, 95.56629180908203, 0.8515022397041321, 
364, 4133182840, -175.44979858398438, -59.15621566772461, 5.663061141967773, 5.3886518478393555, -0.21616961061954498, -4.431491374969482, -0.2981414794921875, 95.93128967285156, 1.664360523223877, 
365, 4133199507, -175.1463165283203, -60.73905563354492, 5.2918620109558105, 5.088820457458496, 0.14283478260040283, -3.925689220428467, -1.2641551494598389, 95.36590576171875, 2.953744411468506, 
366, 4133216174, -174.8302001953125, -62.32680892944336, 4.870143413543701, 4.741397857666016, 0.300223171710968, -2.9253361225128174, -3.469724178314209, 95.76124572753906, 3.316728115081787, 
367, 4133232841, -174.4623260498047, -63.98106002807617, 4.431827545166016, 4.115792274475098, -0.0489087738096714, -2.266772985458374, -1.5846364498138428, 99.73593139648438, 2.1910831928253174, 
368, 4133249508, -173.99246215820312, -65.70846557617188, 3.9589791297912598, 3.77787184715271, -0.16736678779125214, -1.93718421459198, 2.3171608448028564, 104.13601684570312, 1.2033883333206177, 
369, 4133266175, -173.41656494140625, -67.47467041015625, 3.4223573207855225, 3.6056559085845947, 0.07098893076181412, -1.8385281562805176, 4.812403202056885, 106.54113006591797, 0.7235429883003235, 
370, 4133282842, -172.744384765625, -69.29278564453125, 2.815761089324951, 3.3346004486083984, 0.2855904996395111, -1.90241277217865, 6.302022457122803, 109.71549987792969, -0.20090174674987793, 
371, 4133299509, -171.98211669921875, -71.14186096191406, 2.1257338523864746, 2.836766481399536, 0.3287954330444336, -2.0024547576904297, 6.58267068862915, 111.62855529785156, -1.2220231294631958, 
372, 4133316176, -171.0939178466797, -72.9710464477539, 1.2801848649978638, 2.3676469326019287, 0.31226029992103577, -1.8197369575500488, 4.831384181976318, 110.6642837524414, -1.0529707670211792, 
373, 4133332843, -170.095703125, -74.73628234863281, 0.29993584752082825, 2.020238161087036, 0.2245696634054184, -1.5184013843536377, 3.2020559310913086, 106.97694396972656, -1.532469630241394, 
374, 4133349510, -169.0135040283203, -76.41342163085938, -0.6912441849708557, 1.7426843643188477, 0.2037307620048523, -1.2479535341262817, 7.142393589019775, 101.469482421875, -4.032892227172852, 
375, 4133366177, -167.754150390625, -77.98316955566406, -1.833518147468567, 1.656373143196106, -0.07319877296686172, -1.1830724477767944, 8.533177375793457, 95.13886260986328, -4.4474687576293945, 
376, 4133382844, -166.25918579101562, -79.45232391357422, -3.244187116622925, 2.032757043838501, -0.1487756073474884, -0.9628339409828186, 5.921151638031006, 89.47691345214844, -3.7001285552978516, 
377, 4133399511, -164.4239959716797, -80.84779357910156, -5.007378101348877, 2.5633251667022705, -0.13300451636314392, -0.8299323320388794, 5.065650939941406, 85.44718170166016, -3.6923837661743164, 
378, 4133416178, -162.09017944335938, -82.1259536743164, -7.312861442565918, 3.3873023986816406, -0.028613148257136345, -0.9628152251243591, 2.3935277462005615, 79.19795989990234, -2.504490852355957, 
379, 4133432845, -159.16925048828125, -83.2718276977539, -10.191901206970215, 4.55352783203125, 0.12602640688419342, -0.7026541233062744, 3.040891170501709, 72.00133514404297, -2.1083736419677734, 
380, 4133449512, -155.63204956054688, -84.2654037475586, -13.730141639709473, 6.111800193786621, 0.2783390283584595, -0.40108293294906616, 0.3160076141357422, 63.748008728027344, -1.6596754789352417, 
381, 4133466179, -151.49806213378906, -85.10851287841797, -17.923219680786133, 7.610727310180664, 0.31761059165000916, -0.08726868033409119, -3.4306788444519043, 55.521244049072266, -1.6520625352859497, 
382, 4133482846, -147.1649169921875, -85.78067779541016, -22.398868560791016, 9.116423606872559, 0.14033876359462738, 0.03797701373696327, -8.707537651062012, 45.409149169921875, -2.2047832012176514, 
383, 4133499513, -143.19789123535156, -86.28242492675781, -26.567018508911133, 10.846184730529785, -0.023550232872366905, 0.30731016397476196, -12.440659523010254, 34.45520782470703, -2.986877918243408, 
384, 4133516180, -140.33392333984375, -86.69127655029297, -29.64824676513672, 12.247889518737793, -0.19813771545886993, 0.25992053747177124, -13.689800262451172, 26.11853790283203, -6.279997825622559, 
385, 4133532847, -136.9727783203125, -87.11968231201172, -33.12088394165039, 12.905956268310547, -0.15761853754520416, 0.505331814289093, -7.446273326873779, 26.57491111755371, -8.51684856414795, 
386, 4133549514, -132.47134399414062, -87.56739807128906, -37.68083572387695, 12.64590835571289, -0.4629113972187042, 0.780439019203186, -4.22992467880249, 27.716758728027344, -10.15398120880127, 
387, 4133566181, -126.40941619873047, -88.01880645751953, -43.79133224487305, 11.76999282836914, -0.6486445665359497, 0.8544325828552246, -3.630932092666626, 27.9221134185791, -11.961257934570312, 
388, 4133582848, -116.41571044921875, -88.40528869628906, -53.76739501953125, 11.167060852050781, -1.1263302564620972, 0.8705331683158875, 0.2912236750125885, 27.757057189941406, -9.98961067199707, 
389, 4133599515, -100.35588073730469, -88.68017578125, -69.75350952148438, 10.729125022888184, -1.0817670822143555, 0.7328181266784668, 3.7212228775024414, 28.037609100341797, -7.883318901062012, 
390, 4133616182, -79.13239288330078, -88.80974578857422, -90.86573028564453, 10.225764274597168, -0.7794970870018005, 0.5064738988876343, 5.931733131408691, 27.365707397460938, -7.798104763031006, 
391, 4133632849, -57.84025573730469, -88.76742553710938, -112.02300262451172, 9.89162540435791, -0.7217277884483337, 0.2371220737695694, 7.3960652351379395, 25.56096076965332, -7.533918857574463, 
392, 4133649516, -42.59989547729492, -88.60955810546875, -127.1228256225586, 9.608306884765625, -0.6874346137046814, 0.05894990637898445, 7.85446310043335, 21.668365478515625, -6.157739639282227, 
393, 4133666183, -33.58806228637695, -88.4186019897461, -136.0286865234375, 9.670472145080566, -0.618415892124176, 0.006817268207669258, 5.718624591827393, 17.28122329711914, -4.003116130828857, 
394, 4133682850, -28.788776397705078, -88.25079345703125, -140.77886962890625, 9.901997566223145, -0.3809373378753662, 0.21454735100269318, 2.2135722637176514, 12.67901611328125, -2.0113790035247803, 
395, 4133699517, -26.155202865600586, -88.12936401367188, -143.40048217773438, 9.844125747680664, -0.1424727886915207, 0.29580071568489075, -0.03811171278357506, 8.57400131225586, -1.1889930963516235, 
396, 4133716184, -23.925378799438477, -88.03726959228516, -145.63052368164062, 9.8631010055542, 0.02879425697028637, 0.4562264084815979, -0.7074996829032898, 6.686163902282715, -1.8822648525238037, 
397, 4133732851, -21.759857177734375, -87.97957611083984, -147.8025665283203, 9.798693656921387, -0.04018240049481392, 0.444899320602417, -1.0198849439620972, 4.704124927520752, -3.023195266723633, 
398, 4133749518, -19.87627410888672, -87.94033813476562, -149.66848754882812, 9.733624458312988, -0.19786491990089417, 0.5557670593261719, 0.38793641328811646, 3.3916921615600586, -3.063368797302246, 
399, 4133766185, -18.501821517944336, -87.90940856933594, -151.03005981445312, 9.709365844726562, -0.3935313820838928, 0.6255900263786316, 0.0029774759896099567, 2.517427444458008, -2.3328428268432617, 
400, 4133782852, -17.269506454467773, -87.8958740234375, -152.2406768798828, 9.775089263916016, -0.3210750222206116, 0.5062540769577026, 0.6906529068946838, 1.353317379951477, -2.4864425659179688, 
401, 4133799519, -15.91336441040039, -87.91006469726562, -153.54483032226562, 9.823742866516113, -0.1068245992064476, 0.21021048724651337, 2.456392765045166, -0.22753046452999115, -3.1753861904144287, 
402, 4133816186, -14.527689933776855, -87.9483413696289, -154.87066650390625, 9.909061431884766, -0.21099714934825897, 0.31237274408340454, 2.9560320377349854, -1.660253643989563, -3.5705771446228027, 
403, 4133832853, -13.169900894165039, -87.9913330078125, -156.1727752685547, 10.061392784118652, -0.0828954204916954, 0.5961886644363403, 2.831861972808838, -2.096911907196045, -3.54341459274292, 
404, 4133849520, -11.712811470031738, -88.0220718383789, -157.5550994873047, 10.126982688903809, -0.07128249108791351, 0.6602534651756287, 3.785397529602051, -1.371611475944519, -3.3880741596221924, 
405, 4133866187, -10.514056205749512, -88.05409240722656, -158.6405487060547, 10.141380310058594, -0.12126804888248444, 0.6812474131584167, 6.254334926605225, -1.6954331398010254, -2.7875590324401855, 
406, 4133882854, -9.715214729309082, -88.09309387207031, -159.29946899414062, 9.974029541015625, -0.3913213014602661, 0.6787529587745667, 7.81296968460083, -2.3234691619873047, -1.939611554145813, 
407, 4133899521, -8.946839332580566, -88.12622833251953, -159.94158935546875, 9.900959968566895, -0.3648608922958374, 0.7525365352630615, 6.910391330718994, -1.9902738332748413, -1.7733726501464844, 
408, 4133916188, -8.346370697021484, -88.1551742553711, -160.44992065429688, 9.8685884475708, -0.3486241400241852, 0.7048003673553467, 4.969664096832275, -1.7946945428848267, -1.4729222059249878, 
409, 4133932855, -8.323442459106445, -88.18544006347656, -160.39541625976562, 9.838281631469727, -0.252237468957901, 0.6467278599739075, 4.0802764892578125, -2.075871229171753, -0.40013444423675537, 
410, 4133949522, -8.710572242736816, -88.2198486328125, -159.9555206298828, 9.874531745910645, -0.28893977403640747, 0.6375799179077148, 2.625730514526367, -2.3890373706817627, 0.2623957097530365, 
411, 4133966189, -9.492144584655762, -88.25112915039062, -159.14041137695312, 9.970756530761719, -0.24080386757850647, 0.6202247142791748, 1.445203185081482, -2.347224712371826, 0.9418366551399231, 
412, 4133982856, -10.669049263000488, -88.2817153930664, -157.93199157714844, 10.024544715881348, -0.2124803215265274, 0.49909332394599915, 1.3390127420425415, -2.4420814514160156, 1.583101749420166, 
413, 4133999523, -12.184525489807129, -88.30268859863281, -156.38938903808594, 10.027986526489258, -0.23463980853557587, 0.5750575065612793, 1.0662246942520142, -2.0223402976989746, 2.1973323822021484, 
414, 4134016190, -13.832707405090332, -88.30846405029297, -154.73023986816406, 9.87728214263916, -0.3218698799610138, 0.5623654723167419, 0.16467046737670898, -1.2844129800796509, 2.511216402053833, 
415, 4134032857, -15.388094902038574, -88.29417419433594, -153.15744018554688, 9.960835456848145, -0.1920194774866104, 0.5940195918083191, 0.3651922643184662, -0.1498470902442932, 2.6994824409484863, 
416, 4134049524, -16.828210830688477, -88.2704849243164, -151.69818115234375, 9.889689445495605, -0.35818785429000854, 0.5199280977249146, 0.6229329109191895, 0.3717619478702545, 2.6459903717041016, 
417, 4134066191, -18.447498321533203, -88.25459289550781, -150.0878143310547, 9.801403045654297, -0.3935962915420532, 0.4306045174598694, -1.1507787704467773, -0.2173749953508377, 2.838021755218506, 
418, 4134082858, -20.071043014526367, -88.24163818359375, -148.49496459960938, 9.899349212646484, -0.1759013682603836, 0.42846691608428955, -2.501951217651367, -0.4742063879966736, 2.7817764282226562, 
419, 4134099525, -21.54006576538086, -88.224365234375, -147.0485382080078, 10.002948760986328, -0.013754405081272125, 0.49917078018188477, -1.9168930053710938, -0.26251739263534546, 2.6043825149536133, 
420, 4134116192, -22.84685707092285, -88.19680786132812, -145.7353057861328, 10.069564819335938, 0.00199359399266541, 0.5332229137420654, -0.2318461537361145, 0.32505717873573303, 2.657247304916382, 
421, 4134132859, -24.27153205871582, -88.16548919677734, -144.2869873046875, 9.991971015930176, -0.1467411071062088, 0.5402165651321411, 0.8607723712921143, 0.37309378385543823, 3.0198588371276855, 
422, 4134149526, -26.064939498901367, -88.14048767089844, -142.47610473632812, 9.86962890625, -0.230702742934227, 0.5065667033195496, 0.43024855852127075, -0.40368175506591797, 3.560863494873047, 
423, 4134166193, -27.85002899169922, -88.11882781982422, -140.67056274414062, 9.867696762084961, -0.15870316326618195, 0.4685514569282532, 0.5985110998153687, -0.71573406457901, 3.4934375286102295, 
424, 4134182860, -29.36343002319336, -88.09587097167969, -139.12123107910156, 9.870108604431152, -0.12367504090070724, 0.414875864982605, 1.593436360359192, -0.5523378252983093, 3.089115619659424, 
425, 4134199527, -31.012187957763672, -88.07776641845703, -137.40614318847656, 9.920975685119629, -0.16846485435962677, 0.4214443862438202, 3.38786244392395, -1.0582656860351562, 3.2600808143615723, 
426, 4134216194, -32.870391845703125, -88.07572937011719, -135.49380493164062, 9.942678451538086, -0.1703239381313324, 0.45240139961242676, 2.691786050796509, -2.2089803218841553, 3.062260866165161, 
427, 4134232861, -34.95838165283203, -88.09002685546875, -133.35015869140625, 9.91113567352295, -0.1383369266986847, 0.4592891037464142, 2.7527315616607666, -3.3871772289276123, 2.8321566581726074, 
428, 4134249528, -37.14433288574219, -88.09864807128906, -131.09510803222656, 9.954231262207031, -0.11462738364934921, 0.49686509370803833, 3.485703468322754, -3.3397939205169678, 3.0948405265808105, 
429, 4134266195, -39.341590881347656, -88.09329986572266, -128.81178283691406, 9.97368335723877, -0.20943215489387512, 0.4900481104850769, 4.62226676940918, -2.841921329498291, 3.501710891723633, 
430, 4134282862, -41.31216812133789, -88.07665252685547, -126.73514556884766, 9.924944877624512, -0.266880601644516, 0.4578220248222351, 5.723242282867432, -2.2048184871673584, 3.5805857181549072, 
431, 4134299529, -43.20371627807617, -88.05529022216797, -124.7344970703125, 9.912956237792969, -0.19368061423301697, 0.4086063802242279, 6.081101894378662, -2.067124366760254, 3.564948558807373, 
432, 4134316196, -45.2131462097168, -88.03466796875, -122.60136413574219, 9.896625518798828, -0.15003447234630585, 0.3705300986766815, 6.907215118408203, -2.4526853561401367, 3.7072150707244873, 
433, 4134332863, -47.66733932495117, -88.01160430908203, -120.01202392578125, 9.832009315490723, -0.25596538186073303, 0.3175927400588989, 7.617929458618164, -3.2169177532196045, 4.399578094482422, 
434, 4134349530, -50.73463821411133, -87.98656463623047, -116.80084228515625, 9.758837699890137, -0.3656332790851593, 0.25110623240470886, 8.147960662841797, -4.412211894989014, 5.230710983276367, 
435, 4134366197, -53.75546646118164, -87.9734878540039, -113.62796020507812, 9.834753036499023, -0.4031858742237091, 0.19417807459831238, 8.574936866760254, -5.111835956573486, 4.444452285766602, 
436, 4134382864, -57.10291290283203, -87.95818328857422, -110.10220336914062, 9.954678535461426, -0.3624657392501831, 0.2705599069595337, 10.132869720458984, -5.955840110778809, 4.725399017333984, 
437, 4134399531, -60.46372604370117, -87.93303680419922, -106.56148529052734, 9.988578796386719, -0.3743742108345032, 0.38104966282844543, 10.257628440856934, -6.009677410125732, 4.948395252227783, 
438, 4134416198, -64.11021423339844, -87.8989486694336, -102.72303771972656, 9.959526062011719, -0.5276838541030884, 0.2741960883140564, 10.955693244934082, -6.751615047454834, 5.411576747894287, 
439, 4134432865, -68.08895111083984, -87.85497283935547, -98.54711151123047, 9.972676277160645, -0.5501273274421692, 0.16887424886226654, 11.27824592590332, -7.712911128997803, 5.867098808288574, 
440, 4134449532, -72.52100372314453, -87.79842376708984, -93.91873931884766, 9.915203094482422, -0.5820372104644775, 0.04643481969833374, 11.205010414123535, -9.063152313232422, 6.430452346801758, 
441, 4134466199, -76.8685073852539, -87.70569610595703, -89.36373901367188, 9.858597755432129, -0.7770010828971863, 0.0701179951429367, 11.773548126220703, -9.15379524230957, 7.9216766357421875, 
442, 4134482866, -80.46635437011719, -87.59368896484375, -85.54251861572266, 9.922235488891602, -1.232252836227417, 0.09569724649190903, 12.85995101928711, -8.191244125366211, 8.112107276916504, 
443, 4134499533, -83.74976348876953, -87.48145294189453, -82.03987884521484, 10.020286560058594, -1.5338456630706787, 0.18636846542358398, 12.58318042755127, -8.309651374816895, 7.575392723083496, 
444, 4134516200, -87.24649810791016, -87.37677001953125, -78.32568359375, 9.886347770690918, -1.6224771738052368, 0.06507474184036255, 12.38571834564209, -9.75524616241455, 6.732541084289551, 
445, 4134532867, -90.65648651123047, -87.24928283691406, -74.65238189697266, 9.851616859436035, -1.6281676292419434, 0.11055658012628555, 15.176946640014648, -10.477439880371094, 7.493049621582031, 
446, 4134549534, -93.47610473632812, -87.18312072753906, -71.61575317382812, 9.860992431640625, -1.8933662176132202, 0.12813808023929596, 12.517802238464355, -9.284086227416992, 3.2544355392456055, 
447, 4134566201, -95.99666595458984, -87.15235900878906, -68.93915557861328, 9.913898468017578, -1.9150663614273071, 0.13486768305301666, 8.88435173034668, -8.36150074005127, 0.7770705223083496, 
448, 4134582868, -97.79481506347656, -87.16069030761719, -67.02357482910156, 10.101311683654785, -1.786359190940857, 0.2042742818593979, 6.648168563842773, -5.906558990478516, -1.611589789390564, 
449, 4134599535, -98.85562133789062, -87.19984436035156, -65.87291717529297, 10.218048095703125, -1.623473882675171, 0.2660883367061615, 5.013424396514893, -3.320187568664551, -3.256347894668579, 
450, 4134616202, -99.16500091552734, -87.25534057617188, -65.49848937988281, 10.022909164428711, -1.4317160844802856, 0.35467156767845154, 3.4806063175201416, -0.8564503788948059, -3.870476484298706, 
451, 4134632869, -98.15192413330078, -87.32767486572266, -66.4697494506836, 9.62942886352539, -1.5567002296447754, 0.25711312890052795, 2.2694709300994873, 3.062452793121338, -4.333937644958496, 
452, 4134649536, -95.58419799804688, -87.40821838378906, -69.0257568359375, 9.393261909484863, -1.6074373722076416, 0.17881938815116882, 0.5825545191764832, 7.2476582527160645, -4.433929920196533, 
453, 4134666203, -91.66179656982422, -87.48775482177734, -72.97954559326172, 9.214255332946777, -1.6283228397369385, 0.19099771976470947, -1.9586936235427856, 10.518569946289062, -4.571216106414795, 
454, 4134682870, -86.76508331298828, -87.5580825805664, -77.92998504638672, 9.16129207611084, -1.6349083185195923, 0.09856577217578888, -3.3012354373931885, 12.454431533813477, -4.875060081481934, 
455, 4134699537, -81.0052261352539, -87.60960388183594, -83.74726104736328, 9.38888931274414, -1.562577486038208, 0.07986199110746384, -3.4001524448394775, 13.969606399536133, -5.169581413269043, 
456, 4134716204, -74.63532257080078, -87.63569641113281, -90.19005584716797, 9.718658447265625, -1.7279094457626343, 0.07275477051734924, -4.253991603851318, 15.003608703613281, -5.472440719604492, 
457, 4134732871, -67.94818115234375, -87.6318130493164, -96.99362182617188, 10.110390663146973, -1.7812389135360718, 0.06479072570800781, -6.752193927764893, 15.688238143920898, -5.794393062591553, 
458, 4134749538, -61.715187072753906, -87.61616516113281, -103.38345336914062, 10.525262832641602, -1.5648109912872314, 0.06864647567272186, -9.256632804870605, 14.451167106628418, -6.5111517906188965, 
459, 4134766205, -56.18526840209961, -87.60183715820312, -109.08476257324219, 10.717804908752441, -1.2944425344467163, 0.2242422252893448, -10.013384819030762, 12.31922721862793, -7.294017314910889, 
460, 4134782872, -51.77653503417969, -87.57820129394531, -113.63490295410156, 10.660799980163574, -1.0953923463821411, 0.3829376697540283, -8.464017868041992, 9.79249095916748, -6.229205131530762, 
461, 4134799539, -47.643798828125, -87.54473114013672, -117.877197265625, 10.125046730041504, -1.3708597421646118, 0.5641089677810669, -6.573309898376465, 9.243775367736816, -6.098450660705566, 
462, 4134816206, -43.59117126464844, -87.51777648925781, -122.06835174560547, 9.808897972106934, -1.3502609729766846, 0.6539210081100464, -8.146008491516113, 8.53162670135498, -7.1072468757629395, 
463, 4134832873, -39.7047004699707, -87.46016693115234, -126.08645629882812, 9.448163986206055, -1.3161019086837769, 0.6986240744590759, -7.750881671905518, 9.243227005004883, -6.299165725708008, 
464, 4134849540, -35.8931999206543, -87.36812591552734, -130.01458740234375, 9.383724212646484, -1.2349969148635864, 0.6591222286224365, -6.84640645980835, 10.544900894165039, -5.728821277618408, 
465, 4134866207, -32.385887145996094, -87.25220489501953, -133.61993408203125, 9.451617240905762, -1.0421366691589355, 0.591230571269989, -5.751284122467041, 11.105692863464355, -5.2180399894714355, 
466, 4134882874, -29.480289459228516, -87.13761138916016, -136.61595153808594, 9.65753173828125, -0.9403256773948669, 0.42837557196617126, -5.249632835388184, 10.055583000183105, -4.761480331420898, 
467, 4134899541, -27.21162986755371, -87.05643463134766, -138.97970581054688, 9.998600959777832, -0.6781502366065979, 0.37115100026130676, -5.608453273773193, 7.347524166107178, -4.754525184631348, 
468, 4134916208, -25.396018981933594, -87.02046966552734, -140.89483642578125, 10.220744132995605, -0.4868643581867218, 0.4318232536315918, -5.849825859069824, 4.209646224975586, -5.131057262420654, 
469, 4134932875, -23.883146286010742, -87.02572631835938, -142.5046844482422, 10.144433975219727, -0.4107186198234558, 0.5750735402107239, -5.7635369300842285, 1.4630296230316162, -5.446746349334717, 
470, 4134949542, -22.482168197631836, -87.0562973022461, -143.98536682128906, 9.955522537231445, -0.42382898926734924, 0.7746055722236633, -4.684653282165527, -0.2362387478351593, -5.712721347808838, 
471, 4134966209, -21.07501220703125, -87.09815979003906, -145.4627685546875, 9.709341049194336, -0.4683851897716522, 0.8183278441429138, -4.092461585998535, -1.0079493522644043, -5.912550926208496, 
472, 4134982876, -19.830181121826172, -87.14549255371094, -146.7917022705078, 9.614509582519531, -0.48048731684684753, 0.6394243240356445, -5.008205890655518, -1.6367671489715576, -5.51588773727417, 
473, 4134999543, -18.72336196899414, -87.20684051513672, -148.00204467773438, 9.729635238647461, -0.2107107788324356, 0.5181952118873596, -6.097092151641846, -2.6496219635009766, -5.388875484466553, 
474, 4135016210, -17.51155662536621, -87.27063751220703, -149.31695556640625, 9.870996475219727, 0.10662800818681717, 0.48383647203445435, -6.200016021728516, -2.813594102859497, -5.567292213439941, 
475, 4135032877, -16.14661407470703, -87.32775115966797, -150.77371215820312, 9.985029220581055, 0.1990734338760376, 0.4504176378250122, -5.36509370803833, -2.4577951431274414, -5.734492778778076, 
476, 4135049544, -14.597514152526855, -87.38641357421875, -152.39810180664062, 10.05786418914795, 0.28463706374168396, 0.461112916469574, -4.451360702514648, -2.553727626800537, -6.036927223205566, 
477, 4135066211, -13.084793090820312, -87.44871520996094, -153.9905242919922, 10.040775299072266, 0.4090830087661743, 0.5364882349967957, -4.724660396575928, -2.972482442855835, -5.841348648071289, 
478, 4135082878, -11.648640632629395, -87.51021575927734, -155.5341033935547, 10.034486770629883, 0.5934904217720032, 0.5927808880805969, -6.4672980308532715, -3.0899171829223633, -5.508371353149414, 
479, 4135099545, -10.256101608276367, -87.57925415039062, -157.04441833496094, 9.97907829284668, 0.6656075119972229, 0.4569585621356964, -7.138772964477539, -3.6814420223236084, -5.313957691192627, 
480, 4135116212, -8.870012283325195, -87.64216613769531, -158.55201721191406, 10.085399627685547, 0.7494993209838867, 0.37716659903526306, -7.308841228485107, -3.4720070362091064, -5.066154479980469, 
481, 4135132879, -7.476470947265625, -87.70211791992188, -160.08338928222656, 10.150616645812988, 0.7933340668678284, 0.29837629199028015, -8.290704727172852, -3.3683907985687256, -4.910275459289551, 
482, 4135149546, -6.235356330871582, -87.77262115478516, -161.47076416015625, 10.131784439086914, 0.8822082877159119, 0.2958129346370697, -8.741631507873535, -4.172157287597656, -4.476807594299316, 
483, 4135166213, -5.206130027770996, -87.84051513671875, -162.6398162841797, 10.203373908996582, 0.8494974970817566, 0.4226071536540985, -8.431844711303711, -4.127501010894775, -3.754387617111206, 
484, 4135182880, -4.1872148513793945, -87.8959732055664, -163.77484130859375, 10.246699333190918, 0.7220427393913269, 0.4500340223312378, -7.145113468170166, -3.4813947677612305, -3.4256227016448975, 
485, 4135199547, -2.965540647506714, -87.94091033935547, -165.0791015625, 10.305466651916504, 0.6700111031532288, 0.4774070084095001, -5.175137042999268, -2.8477871417999268, -3.610713481903076, 
486, 4135216214, -1.4942277669906616, -87.96039581298828, -166.6005401611328, 10.284707069396973, 0.7416740655899048, 0.6652048230171204, -3.1817378997802734, -1.3789366483688354, -3.9119045734405518, 
487, 4135232881, -0.015284623019397259, -87.93550109863281, -168.10440063476562, 9.9011869430542, 0.7494694590568542, 0.725866973400116, -1.6409159898757935, 1.161094069480896, -3.8072128295898438, 
488, 4135249548, 1.1336194276809692, -87.86595153808594, -169.26687622070312, 9.529842376708984, 0.6293199062347412, 0.6570544242858887, -0.9914675951004028, 3.7780330181121826, -3.1736183166503906, 
489, 4135266215, 1.9114595651626587, -87.76954650878906, -170.05966186523438, 9.332862854003906, 0.6175044775009155, 0.5787564516067505, -1.1149977445602417, 5.361193656921387, -2.524503231048584, 
490, 4135282882, 2.4036800861358643, -87.67644500732422, -170.58358764648438, 9.294784545898438, 0.6870812177658081, 0.5001567006111145, -2.1387503147125244, 5.161759853363037, -2.0057179927825928, 
491, 4135299549, 2.868577480316162, -87.60633087158203, -171.10801696777344, 9.437950134277344, 0.8123846054077148, 0.44742339849472046, -3.7980945110321045, 3.7919797897338867, -2.0274500846862793, 
492, 4135316216, 3.593196392059326, -87.55888366699219, -171.8961639404297, 9.549095153808594, 1.0015960931777954, 0.3515620827674866, -4.001511096954346, 2.3382670879364014, -2.678550958633423, 
493, 4135332883, 4.83673095703125, -87.52876281738281, -173.179443359375, 9.68246841430664, 1.1303417682647705, 0.3823094367980957, -2.4908480644226074, 1.1714673042297363, -3.9450089931488037, 
494, 4135349550, 6.599318981170654, -87.52164459228516, -174.9716339111328, 9.750175476074219, 0.9800139665603638, 0.4396781623363495, -1.9005391597747803, -0.4163728356361389, -5.154991626739502, 
495, 4135366217, 8.629591941833496, -87.55632019042969, -177.0397186279297, 9.832161903381348, 0.7997591495513916, 0.4115471839904785, -2.382570505142212, -3.154383420944214, -5.478416442871094, 
496, 4135382884, 11.20146656036377, -87.65631866455078, -179.6660919189453, 10.106623649597168, 0.9232107996940613, 0.3446531593799591, -3.3912508487701416, -7.414687156677246, -5.904062747955322, 
497, 4135399551, 14.547589302062988, -87.79859924316406, 176.9118194580078, 9.863653182983398, 0.868404746055603, 0.431845486164093, -4.5930256843566895, -10.50789737701416, -6.487483024597168, 
498, 4135416218, 18.636962890625, -87.94205474853516, 172.72808837890625, 9.533806800842285, 0.3618380129337311, 0.18322286009788513, -5.765858173370361, -11.261131286621094, -6.907161235809326, 
499, 4135432885, 23.01768684387207, -88.0455551147461, 168.2468719482422, 9.755058288574219, 0.15237092971801758, 0.18399830162525177, -6.2591071128845215, -9.542900085449219, -6.971717357635498, 
500, 4135449552, 27.549610137939453, -88.09063720703125, 163.6229248046875, 10.228582382202148, -0.04096153378486633, 0.2249496728181839, -5.695152759552002, -6.793348789215088, -7.705687046051025, 
501, 4135466219, 31.354944229125977, -88.08265686035156, 159.76527404785156, 10.563865661621094, -0.1757667064666748, 0.2666819095611572, -3.3378348350524902, -3.743643045425415, -7.374639987945557, 
502, 4135482886, 33.48177719116211, -88.0485610961914, 157.60963439941406, 10.671722412109375, -0.18697254359722137, 0.32060566544532776, -2.134357213973999, -0.9711439609527588, -5.1639556884765625, 
503, 4135499553, 33.81299591064453, -87.99250030517578, 157.28038024902344, 10.483752250671387, -0.26597660779953003, 0.3667331337928772, -0.3082488179206848, 2.043541193008423, -2.8229806423187256, 
504, 4135516220, 32.79386520385742, -87.90912628173828, 158.3141632080078, 10.142972946166992, -0.28926005959510803, 0.5364051461219788, 0.43524304032325745, 5.0413289070129395, -1.3092702627182007, 
505, 4135532887, 31.102169036865234, -87.80519104003906, 160.0210723876953, 9.838435173034668, -0.4075044095516205, 0.5490108132362366, 0.48598194122314453, 6.950168132781982, -0.4830044209957123, 
506, 4135549554, 29.27365493774414, -87.72333526611328, 161.85635375976562, 9.694825172424316, -0.4149046242237091, 0.4553455114364624, -0.13033023476600647, 6.0366129875183105, 0.8060124516487122, 
507, 4135566221, 27.563356399536133, -87.67063903808594, 163.56832885742188, 9.731673240661621, -0.20298852026462555, 0.4032540023326874, -0.3953832983970642, 4.365409851074219, 1.6870254278182983, 
508, 4135582888, 26.13172721862793, -87.6473159790039, 164.99981689453125, 9.861584663391113, -0.11715807020664215, 0.36951079964637756, -0.47304093837738037, 2.4589922428131104, 2.04388689994812, 
509, 4135599555, 25.290943145751953, -87.65190124511719, 165.8717803955078, 9.895573616027832, 0.1799660325050354, 0.3376310169696808, 1.4181303977966309, 0.2884310185909271, 1.6078821420669556, 
510, 4135616222, 25.29062271118164, -87.66787719726562, 165.96243286132812, 9.902759552001953, 0.19690726697444916, 0.33149391412734985, 4.951722621917725, -1.1437351703643799, 0.1552833914756775, 
511, 4135632889, 25.72153663635254, -87.67459869384766, 165.642333984375, 9.913337707519531, 0.11327539384365082, 0.40174761414527893, 6.3601531982421875, -1.0495445728302002, -1.0048376321792603, 
512, 4135649556, 26.48592758178711, -87.66150665283203, 164.98829650878906, 9.946243286132812, -0.013922569341957569, 0.47965526580810547, 6.242525577545166, -0.4121723771095276, -2.2305076122283936, 
513, 4135666223, 27.215259552001953, -87.63362884521484, 164.3436737060547, 9.963512420654297, -0.12071813642978668, 0.4953053593635559, 4.874449253082275, 0.43433380126953125, -2.6613900661468506, 
514, 4135682890, 27.696870803833008, -87.59686279296875, 163.91949462890625, 9.940898895263672, -0.23977534472942352, 0.5066277384757996, 3.2056403160095215, 1.087713599205017, -2.4211044311523438, 
515, 4135699557, 28.157085418701172, -87.5406723022461, 163.51303100585938, 10.00230884552002, -0.13930991291999817, 0.5238959193229675, 3.0624659061431885, 2.110902786254883, -2.9926137924194336, 
516, 4135716224, 28.461103439331055, -87.45624542236328, 163.2863311767578, 10.039761543273926, -0.06283930689096451, 0.46724313497543335, 4.370813846588135, 3.791736364364624, -3.4137377738952637, 
517, 4135732891, 28.48993682861328, -87.34318542480469, 163.35733032226562, 10.095704078674316, 0.0012740952661260962, 0.5808600783348083, 5.723613262176514, 5.684695243835449, -3.57541823387146, 
518, 4135749558, 28.317745208740234, -87.20340728759766, 163.64039611816406, 10.082711219787598, -0.11618182063102722, 0.6344784498214722, 6.517467975616455, 7.389503002166748, -3.801579236984253, 
519, 4135766225, 27.735963821411133, -87.04686737060547, 164.32623291015625, 9.923013687133789, -0.23104996979236603, 0.659100353717804, 5.920102596282959, 8.869048118591309, -3.1094470024108887, 
520, 4135782892, 26.792743682861328, -86.87432098388672, 165.33837890625, 9.735950469970703, -0.2104623168706894, 0.5628221035003662, 3.764779806137085, 10.263287544250488, -2.3923165798187256, 
521, 4135799559, 25.67111587524414, -86.71383666992188, 166.5133514404297, 9.83387279510498, -0.08230509608983994, 0.5624133348464966, 2.7905492782592773, 9.987247467041016, -1.2288594245910645, 
522, 4135816226, 24.62925910949707, -86.57160186767578, 167.61322021484375, 9.935090065002441, -0.12107698619365692, 0.5599348545074463, 3.1622791290283203, 8.974377632141113, -0.6722822189331055, 
523, 4135832893, 23.818313598632812, -86.44058990478516, 168.5040283203125, 10.019243240356445, -0.09965217113494873, 0.6297321319580078, 4.625814437866211, 8.118427276611328, -0.801869809627533, 
524, 4135849560, 23.340791702270508, -86.33008575439453, 169.08114624023438, 9.905781745910645, -0.167687326669693, 0.4629160165786743, 6.005789279937744, 6.559613227844238, -1.2240185737609863, 
525, 4135866227, 22.90423011779785, -86.2542495727539, 169.59307861328125, 9.845157623291016, -0.02715780772268772, 0.4914640784263611, 4.330281734466553, 4.579750061035156, -0.5486753582954407, 
526, 4135882894, 22.460186004638672, -86.20274353027344, 170.0649871826172, 9.808228492736816, -0.053367432206869125, 0.5990915298461914, 1.5762118101119995, 3.169001340866089, -0.06775838881731033, 
527, 4135899561, 21.86988067626953, -86.16217803955078, 170.6575164794922, 9.763872146606445, -0.09606964141130447, 0.6065537929534912, -0.04254269599914551, 2.75046443939209, 0.6723909378051758, 
528, 4135916228, 21.06807518005371, -86.13066864013672, 171.4752655029297, 9.78962230682373, -0.03967995196580887, 0.5753742456436157, 0.7703595757484436, 2.57869291305542, 1.762275218963623, 
529, 4135932895, 20.046382904052734, -86.12419891357422, 172.52127075195312, 9.826122283935547, -0.08968906849622726, 0.571921169757843, 1.2905919551849365, 1.4509402513504028, 3.213747262954712, 
530, 4135949562, 18.867185592651367, -86.13133239746094, 173.72113037109375, 9.94753646850586, -0.014871913008391857, 0.5766915082931519, 0.9668985605239868, 0.8158989548683167, 4.106119155883789, 
531, 4135966229, 17.83626365661621, -86.16130828857422, 174.80889892578125, 9.891647338867188, 0.23048095405101776, 0.5401923656463623, 3.2272963523864746, -0.7033888697624207, 4.096155643463135, 
532, 4135982896, 16.934852600097656, -86.1812515258789, 175.79360961914062, 9.908490180969238, 0.112252376973629, 0.5000934600830078, 4.821277618408203, -0.35472312569618225, 3.491671085357666, 
533, 4135999563, 16.198143005371094, -86.20217895507812, 176.5455780029297, 9.831664085388184, -0.0835072472691536, 0.5951536893844604, 0.824889063835144, -0.729641854763031, 2.5937275886535645, 
534, 4136016230, 15.16721248626709, -86.24016571044922, 177.54847717285156, 9.848971366882324, -0.11682359874248505, 0.7387590408325195, -1.8034158945083618, -1.5100479125976562, 3.7939648628234863, 
535, 4136032897, 13.883739471435547, -86.26425170898438, 178.7949676513672, 9.877323150634766, -0.11312443017959595, 0.705451250076294, -2.427302837371826, -0.5434759259223938, 4.448586940765381, 
536, 4136049564, 12.22230052947998, -86.26954650878906, -179.57484436035156, 10.042835235595703, 0.08716659247875214, 0.9375665187835693, -2.170240879058838, 0.7538521885871887, 5.632995128631592, 
537, 4136066231, 11.18032455444336, -86.23839569091797, -178.54110717773438, 9.94460391998291, -0.16396741569042206, 0.7207567691802979, -0.728476345539093, 2.256216287612915, 2.9490268230438232, 
538, 4136082898, 9.546648979187012, -86.21680450439453, -176.9058837890625, 9.99767017364502, -0.1627713143825531, 0.8117850422859192, -0.25341203808784485, 2.0358574390411377, 5.475297451019287, 
539, 4136099565, 8.64074993133545, -86.1601333618164, -176.0070343017578, 9.78345775604248, -0.2907439172267914, 0.8419513702392578, -0.5956361293792725, 3.532971143722534, 2.353109359741211, 
540, 4136116232, 7.7720537185668945, -86.11295318603516, -175.19308471679688, 9.826886177062988, -0.3437689244747162, 0.7942813634872437, -3.5112192630767822, 2.876312732696533, 2.19852352142334, 
541, 4136132899, 6.847934722900391, -86.08818817138672, -174.35731506347656, 9.920037269592285, -0.16898655891418457, 0.7987236380577087, -5.445362567901611, 1.494750738143921, 2.5280182361602783, 
542, 4136149566, 5.99807596206665, -86.07833862304688, -173.58493041992188, 9.96651554107666, -0.066803477704525, 0.8214907646179199, -4.767702579498291, 0.5406906008720398, 2.408778667449951, 
543, 4136166233, 5.276382923126221, -86.0479965209961, -172.92018127441406, 9.925080299377441, -0.14088943600654602, 0.7511812448501587, -3.5800788402557373, 1.6894712448120117, 1.8712831735610962, 
544, 4136182900, 4.584072113037109, -86.00849914550781, -172.2847900390625, 9.859291076660156, -0.2884390950202942, 0.7603729367256165, -3.6290128231048584, 2.1704652309417725, 1.7538232803344727, 
545, 4136199567, 3.288813352584839, -85.97435760498047, -171.06900024414062, 9.826677322387695, -0.36766549944877625, 0.747582197189331, -5.052758693695068, 1.995850682258606, 4.269656658172607, 
546, 4136216234, 1.9804140329360962, -85.9423828125, -169.84849548339844, 9.857182502746582, -0.33634933829307556, 0.733839750289917, -5.551565647125244, 1.746126651763916, 4.3830180168151855, 
547, 4136232901, 0.7151965498924255, -85.89444732666016, -168.66851806640625, 9.92212963104248, -0.27286437153816223, 0.7045411467552185, -5.368575572967529, 2.593932628631592, 4.28143835067749, 
548, 4136249568, -0.4332641363143921, -85.837646484375, -167.5985107421875, 9.804872512817383, -0.2100951224565506, 0.6475980281829834, -5.063849449157715, 3.0029549598693848, 3.9243335723876953, 
549, 4136266235, -1.342911958694458, -85.7833251953125, -166.7616729736328, 9.787647247314453, -0.2979828417301178, 0.602387547492981, -4.61640739440918, 2.8060569763183594, 3.0203328132629395, 
550, 4136282902, -2.179701328277588, -85.73828125, -165.98602294921875, 9.822403907775879, -0.25526273250579834, 0.5857830047607422, -3.8546993732452393, 2.208871364593506, 2.81768536567688, 
551, 4136299569, -2.877753973007202, -85.70563507080078, -165.33517456054688, 9.92956256866455, -0.24245935678482056, 0.6098785996437073, -3.1492221355438232, 1.4318970441818237, 2.290806531906128, 
552, 4136316236, -3.479525089263916, -85.68067169189453, -164.78138732910156, 9.757367134094238, -0.08484730124473572, 0.5351641178131104, -3.0794663429260254, 0.9701257944107056, 1.874792218208313, 
553, 4136332903, -3.7710938453674316, -85.66397094726562, -164.5193634033203, 9.847641944885254, -0.0995367243885994, 0.6398982405662537, -1.9495364427566528, 0.5406008958816528, 0.5423553586006165, 
554, 4136349570, -4.016319274902344, -85.64454650878906, -164.30093383789062, 9.923089981079102, -0.11537382751703262, 0.8046781420707703, -1.7629988193511963, 0.7211958765983582, 0.36584535241127014, 
555, 4136366237, -4.182346820831299, -85.6172866821289, -164.16485595703125, 9.927411079406738, -0.20380070805549622, 0.8716005682945251, -1.9649933576583862, 1.196913480758667, 0.030331837013363838, 
556, 4136382904, -4.35057258605957, -85.6084976196289, -164.02511596679688, 9.868724822998047, -0.3039643466472626, 0.7136226296424866, -1.796910285949707, 0.10499286651611328, -0.023089850321412086, 
557, 4136399571, -4.504934310913086, -85.5960693359375, -163.926513671875, 9.879888534545898, -0.18854165077209473, 0.7299336194992065, -3.49318790435791, 0.3340984582901001, -0.19457967579364777, 
558, 4136416238, -4.772025108337402, -85.5958023071289, -163.7267303466797, 9.747025489807129, -0.2629116475582123, 0.527823269367218, -4.190890789031982, -0.43375104665756226, 0.21379560232162476, 
559, 4136432905, -5.033164978027344, -85.59896087646484, -163.5226593017578, 9.88582992553711, -0.20939552783966064, 0.7236310243606567, -3.5396366119384766, -0.6300980448722839, 0.20186010003089905, 
560, 4136449572, -5.170891761779785, -85.60256958007812, -163.40805053710938, 9.966124534606934, -0.24122563004493713, 0.8069837689399719, -1.581635594367981, -0.6349003911018372, -0.21615839004516602, 
561, 4136466239, -5.119394779205322, -85.60559844970703, -163.44158935546875, 9.903843879699707, -0.2767457962036133, 0.7369458079338074, 0.949084997177124, -0.5312073826789856, -0.882421612739563, 
562, 4136482906, -4.951374530792236, -85.61983489990234, -163.58131408691406, 9.850531578063965, -0.21005521714687347, 0.593096137046814, 1.559038758277893, -1.155158519744873, -1.429214358329773, 
563, 4136499573, -4.707092761993408, -85.63789367675781, -163.80572509765625, 9.924346923828125, -0.13903020322322845, 0.7375180125236511, 0.87375807762146, -1.3478171825408936, -1.837147831916809, 
564, 4136516240, -4.511837959289551, -85.6601791381836, -164.01144409179688, 9.852432250976562, -0.3603591322898865, 0.7642788887023926, -0.6964221000671387, -1.6264960765838623, -1.7485405206680298, 
565, 4136532907, -4.440679550170898, -85.68870544433594, -164.08782958984375, 9.87794017791748, -0.26797258853912354, 0.7486897110939026, -0.47382211685180664, -2.0303444862365723, -1.1979700326919556, 
566, 4136549574, -4.398201942443848, -85.71641540527344, -164.12757873535156, 9.864154815673828, -0.18144547939300537, 0.7081497311592102, -0.12849892675876617, -1.9978163242340088, -1.0411946773529053, 
567, 4136566241, -4.356168270111084, -85.7494125366211, -164.16566467285156, 9.902677536010742, -0.21864941716194153, 0.6580817103385925, 0.06051639840006828, -2.3317928314208984, -1.050005316734314, 
568, 4136582908, -4.310154438018799, -85.78755187988281, -164.2100067138672, 9.884367942810059, -0.19316983222961426, 0.6386801600456238, -0.09967183321714401, -2.6123547554016113, -1.0926506519317627, 
569, 4136599575, -4.272201061248779, -85.82566833496094, -164.2453155517578, 9.907977104187012, -0.20431798696517944, 0.649291455745697, -0.06545325368642807, -2.6270945072174072, -1.0554226636886597, 
570, 4136616242, -4.260437965393066, -85.86100006103516, -164.25247192382812, 9.967491149902344, -0.19283203780651093, 0.6608361005783081, 0.10971839725971222, -2.461867094039917, -0.9087769389152527, 
571, 4136632909, -4.251358985900879, -85.88658142089844, -164.2532501220703, 9.941854476928711, -0.2462896704673767, 0.6909615993499756, 0.27988913655281067, -1.8627859354019165, -0.8543243408203125, 
572, 4136649576, -4.261286735534668, -85.90547943115234, -164.23324584960938, 9.883986473083496, -0.2705131769180298, 0.5927861928939819, 0.3617089092731476, -1.4828344583511353, -0.7304102182388306, 
573, 4136666243, -4.261871337890625, -85.90141296386719, -164.22637939453125, 9.933484077453613, -0.13187621533870697, 0.8009166717529297, 0.12722468376159668, -0.09445962309837341, -0.6900829076766968, 
574, 4136682910, -4.269500732421875, -85.89625549316406, -164.21348571777344, 9.843106269836426, -0.22115623950958252, 0.7158100605010986, 0.1362147480249405, -0.04391297325491905, -0.6443002820014954, 
575, 4136699577, -4.245232582092285, -85.88982391357422, -164.2222137451172, 9.977200508117676, -0.08123031258583069, 0.8481471538543701, 0.721388041973114, 0.044649332761764526, -0.7434853911399841, 
576, 4136716244, -4.134833335876465, -85.87669372558594, -164.3090057373047, 9.946368217468262, -0.22739826142787933, 0.819828987121582, 1.269090175628662, 0.4886327087879181, -1.0335878133773804, 
577, 4136732911, -4.148248195648193, -85.85967254638672, -164.28500366210938, 9.88934326171875, -0.3012019097805023, 0.7897245287895203, 0.47724777460098267, 0.6533607244491577, -0.5500070452690125, 
578, 4136749578, -4.243570327758789, -85.83787536621094, -164.1823272705078, 9.96000862121582, -0.19358095526695251, 0.8202369213104248, 0.17912881076335907, 0.9245095252990723, -0.21538999676704407, 
579, 4136766245, -4.334517002105713, -85.81647491455078, -164.0733642578125, 9.951899528503418, -0.14361287653446198, 0.815471351146698, 0.9081687331199646, 0.8971296548843384, -0.15505929291248322, 
580, 4136782912, -4.4162163734436035, -85.79104614257812, -163.9662322998047, 9.912050247192383, -0.19441410899162292, 0.8262573480606079, 1.4882066249847412, 1.1347641944885254, -0.11936797946691513, 
581, 4136799579, -4.499029159545898, -85.76575469970703, -163.8485565185547, 9.890826225280762, -0.20687131583690643, 0.8108205795288086, 1.749955654144287, 1.1210997104644775, -0.11293919384479523, 
582, 4136816246, -4.624593734741211, -85.7418212890625, -163.68960571289062, 9.846853256225586, -0.23052161931991577, 0.7798629403114319, 1.7523503303527832, 1.0225932598114014, 0.06770075857639313, 
583, 4136832913, -4.7642130851745605, -85.7161865234375, -163.52108764648438, 9.82498550415039, -0.24281910061836243, 0.7490006685256958, 1.4995018243789673, 1.1133904457092285, 0.1503913700580597, 
584, 4136849580, -4.960057258605957, -85.68956756591797, -163.31195068359375, 9.827189445495605, -0.27429237961769104, 0.7099394798278809, 0.483458936214447, 1.1601593494415283, 0.3094206154346466, 
585, 4136866247, -5.153011322021484, -85.66410827636719, -163.11219787597656, 9.9055757522583, -0.20399916172027588, 0.730592668056488, 0.17652912437915802, 1.0936942100524902, 0.3407193124294281, 
586, 4136882914, -5.273804664611816, -85.64041137695312, -162.98300170898438, 9.953398704528809, -0.16240409016609192, 0.7544298768043518, 0.2524195611476898, 1.0193662643432617, -0.018812529742717743, 
587, 4136899581, -5.321868896484375, -85.61304473876953, -162.9304962158203, 9.908327102661133, -0.19605471193790436, 0.7185028195381165, 0.020906366407871246, 1.2629175186157227, -0.35308387875556946, 
588, 4136916248, -5.296750545501709, -85.58261108398438, -162.9515838623047, 9.862272262573242, -0.2212611734867096, 0.6987048387527466, 0.09700170159339905, 1.4722884893417358, -0.6503192782402039, 
589, 4136932915, -5.261205673217773, -85.55014038085938, -162.98141479492188, 9.871481895446777, -0.21627196669578552, 0.6933029890060425, 0.0942995622754097, 1.6103025674819946, -0.7091260552406311, 
590, 4136949582, -5.242297649383545, -85.5224609375, -162.99899291992188, 9.854235649108887, -0.1962365061044693, 0.7451888918876648, -0.04259391874074936, 1.3168320655822754, -0.6340551972389221, 
591, 4136966249, -5.1886138916015625, -85.49510955810547, -163.0430450439453, 9.899048805236816, -0.1642528772354126, 0.8512067198753357, 0.35545942187309265, 1.3114149570465088, -0.7940576672554016, 
592, 4136982916, -5.123765468597412, -85.46188354492188, -163.09024047851562, 9.95699405670166, -0.141691192984581, 0.9264543056488037, 0.8043860793113708, 1.6641532182693481, -0.7912018895149231, 
593, 4136999583, -5.082460403442383, -85.4324951171875, -163.10342407226562, 9.844372749328613, -0.2668275535106659, 0.7859361171722412, 1.3368995189666748, 1.4113301038742065, -0.6612814664840698, 
594, 4137016250, -5.137474536895752, -85.42320251464844, -163.03311157226562, 9.881860733032227, -0.16104815900325775, 0.8380613923072815, 0.8331747055053711, 0.19413785636425018, -0.2852230370044708, 
595, 4137032917, -5.240178108215332, -85.40739440917969, -162.94125366210938, 9.77540111541748, -0.2854192852973938, 0.7301450967788696, -0.7550751566886902, 0.5563014149665833, -0.17756003141403198, 
596, 4137049584, -5.559911727905273, -85.40279388427734, -162.65013122558594, 9.816646575927734, -0.23446138203144073, 0.7424139380455017, -1.8506965637207031, -0.200816348195076, 0.7137809991836548, 
597, 4137066251, -5.918067932128906, -85.40679931640625, -162.3177490234375, 9.931314468383789, -0.2574884295463562, 0.8518987894058228, -1.5297822952270508, -0.7409625053405762, 0.8894584774971008, 
598, 4137082918, -6.244909763336182, -85.41320037841797, -161.9971923828125, 9.913436889648438, -0.2488873153924942, 0.8586714267730713, -0.48600098490715027, -0.8820117712020874, 0.8026444315910339, 
