sep=,
DeviceTag:,Foot_01,,,,,,,,,,,,,,,,,
FirmwareVersion:,1.9.1,,,,,,,,,,,,,,,,,
AppVersion:,2022.0.1,,,,,,,,,,,,,,,,,
StartTime:,2023-02-16 09:14:57.000 -0500,,,,,,,,,,,,,,,,,
© Xsens Technologies B. V. 2005-2023,,,,,,,,,,,,,,,,,,,

PacketCounter,SampleTimeFine,Euler_X,Euler_Y,Euler_Z,Acc_X,Acc_Y,Acc_Z,Gyr_X,Gyr_Y,Gyr_Z,
0, 1030770120, 179.60569763183594, 2.0301594734191895, 112.44486999511719, 0.0, 0.0, 0.0, 0.0, 0.0, 0.0, 
1, 1030786787, 179.60133361816406, 2.0253913402557373, 112.44212341308594, -0.3465595245361328, 0.07688845694065094, -9.998188972473145, -0.10001758486032486, -0.1590164303779602, -0.3843953609466553, 
2, 1030803454, 179.59239196777344, 2.022129774093628, 112.44605255126953, -0.34610891342163086, 0.06432881951332092, -10.000921249389648, -0.1425987035036087, -0.30982398986816406, -0.46800804138183594, 
3, 1030820121, 179.58848571777344, 2.0206642150878906, 112.44818878173828, -0.347943514585495, 0.0747641921043396, -10.01187515258789, -0.258957177400589, -0.3582320213317871, -0.3958699107170105, 
4, 1030836788, 179.5870819091797, 2.0198585987091064, 112.4554214477539, -0.35814642906188965, 0.0699792206287384, -10.005419731140137, -0.03853430598974228, -0.24913473427295685, -0.3926298916339874, 
5, 1030853455, 179.5859832763672, 2.024035930633545, 112.46076202392578, -0.32958683371543884, 0.0783153623342514, -9.999000549316406, -0.07787541300058365, -0.31553560495376587, -0.5237668752670288, 
6, 1030870122, 179.5838623046875, 2.0241966247558594, 112.46145629882812, -0.3515697717666626, 0.07663454860448837, -9.996203422546387, -0.06556850671768188, -0.3319149613380432, -0.4909825921058655, 
7, 1030886789, 179.5794677734375, 2.0245471000671387, 112.4702377319336, -0.3415561616420746, 0.062147654592990875, -10.01357364654541, -0.1902126967906952, -0.22298415005207062, -0.507310688495636, 
8, 1030903456, 179.57835388183594, 2.0246024131774902, 112.48309326171875, -0.3275698721408844, 0.07365556806325912, -9.99983024597168, -0.10989129543304443, -0.22129371762275696, -0.5040707588195801, 
9, 1030920123, 179.57736206054688, 2.024393081665039, 112.4860610961914, -0.35750988125801086, 0.06655679643154144, -10.00161075592041, -0.09507433325052261, -0.29258665442466736, -0.49178943037986755, 
10, 1030936790, 179.5768585205078, 2.0258781909942627, 112.49079132080078, -0.3519667387008667, 0.07319781184196472, -9.997004508972168, -0.09344793111085892, -0.2753749489784241, -0.4803149700164795, 
11, 1030953457, 179.57568359375, 2.028958797454834, 112.48672485351562, -0.3546132445335388, 0.07341910153627396, -10.001550674438477, -0.12044371664524078, -0.3204789161682129, -0.46720123291015625, 
12, 1030970124, 179.57510375976562, 2.0319788455963135, 112.48583221435547, -0.3390709459781647, 0.07192467898130417, -9.998785972595215, -0.07786259800195694, -0.27618172764778137, -0.46229639649391174, 
13, 1030986791, 179.57601928710938, 2.0334208011627197, 112.49453735351562, -0.34901636838912964, 0.06658898293972015, -9.987764358520508, 0.01470809243619442, -0.20315992832183838, -0.38938987255096436, 
14, 1031003458, 179.57464599609375, 2.0359439849853516, 112.48963165283203, -0.36154383420944214, 0.08112984150648117, -9.988639831542969, -0.1377066820859909, -0.25412920117378235, -0.44011586904525757, 
15, 1031020125, 179.57394409179688, 2.0386393070220947, 112.48076629638672, -0.34766098856925964, 0.07969219982624054, -10.002358436584473, -0.0754806250333786, -0.22371411323547363, -0.48851099610328674, 
16, 1031036792, 179.5738067626953, 2.0414042472839355, 112.47969055175781, -0.33368873596191406, 0.08356191962957382, -10.005104064941406, -0.022974589839577675, -0.23105214536190033, -0.4197024703025818, 
17, 1031053459, 179.57095336914062, 2.0448555946350098, 112.48817443847656, -0.3654347360134125, 0.06610261648893356, -9.991308212280273, -0.1696072816848755, -0.2976195514202118, -0.4237108826637268, 
18, 1031070126, 179.56993103027344, 2.0490565299987793, 112.51382446289062, -0.3562510311603546, 0.06475795805454254, -10.003191947937012, -0.08030861616134644, -0.310592383146286, -0.504928708076477, 
19, 1031086793, 179.5689239501953, 2.0529916286468506, 112.57511901855469, -0.3360919654369354, 0.06590592116117477, -9.993124961853027, -0.09013108164072037, -0.28522300720214844, -0.4524483382701874, 
20, 1031103460, 179.56680297851562, 2.0578126907348633, 112.58684539794922, -0.3671870827674866, 0.07062294334173203, -10.012264251708984, -0.16709725558757782, -0.35663124918937683, -0.47208043932914734, 
21, 1031120127, 179.565673828125, 2.0615415573120117, 112.55451965332031, -0.3371219038963318, 0.06933192908763885, -10.021437644958496, -0.10899484157562256, -0.2704957127571106, -0.42620810866355896, 
22, 1031136794, 179.56483459472656, 2.065162420272827, 112.5604248046875, -0.3589189648628235, 0.06585913151502609, -9.997563362121582, -0.09255148470401764, -0.28031817078590393, -0.3917974531650543, 
23, 1031153461, 179.56381225585938, 2.06793212890625, 112.55553436279297, -0.35249951481819153, 0.08534999936819077, -10.005772590637207, -0.10905887186527252, -0.2213321328163147, -0.40405309200286865, 
24, 1031170128, 179.56324768066406, 2.07175874710083, 112.53855895996094, -0.34760382771492004, 0.0810471847653389, -9.986540794372559, -0.07380299270153046, -0.2827129662036896, -0.49509352445602417, 
25, 1031186795, 179.5624237060547, 2.075532913208008, 112.52584838867188, -0.3457012176513672, 0.07573691755533218, -10.000255584716797, -0.07868220657110214, -0.2827385663986206, -0.45739156007766724, 
26, 1031203462, 179.5615234375, 2.0794408321380615, 112.53398895263672, -0.35569679737091064, 0.07954880595207214, -9.996533393859863, -0.08271621912717819, -0.29586511850357056, -0.4295249879360199, 
27, 1031220129, 179.55844116210938, 2.08219313621521, 112.56886291503906, -0.34557607769966125, 0.07795416563749313, -9.999276161193848, -0.21413497626781464, -0.22148582339286804, -0.5547454357147217, 
28, 1031236796, 179.55592346191406, 2.0853278636932373, 112.57411193847656, -0.36451923847198486, 0.06929616630077362, -10.003792762756348, -0.17211733758449554, -0.24932679533958435, -0.41710278391838074, 
29, 1031253463, 179.5542755126953, 2.089566946029663, 112.58406066894531, -0.35155177116394043, 0.07622368633747101, -10.007454872131348, -0.12615536153316498, -0.30739083886146545, -0.4589923918247223, 
30, 1031270130, 179.55401611328125, 2.093348741531372, 112.58626556396484, -0.3377441167831421, 0.06744047999382019, -9.995563507080078, -0.04178711771965027, -0.2809840738773346, -0.45252516865730286, 
31, 1031286797, 179.55282592773438, 2.097982406616211, 112.6025161743164, -0.34868723154067993, 0.07754340767860413, -9.997330665588379, -0.10488399118185043, -0.33929139375686646, -0.5295169353485107, 
32, 1031303464, 179.55245971679688, 2.1019704341888428, 112.60814666748047, -0.345980167388916, 0.0723109096288681, -9.988150596618652, -0.05158397555351257, -0.3031391203403473, -0.4590819776058197, 
33, 1031320131, 179.55142211914062, 2.1058623790740967, 112.62013244628906, -0.3505648672580719, 0.07880888134241104, -9.990846633911133, -0.09255148470401764, -0.2991563081741333, -0.4459170699119568, 
34, 1031336798, 179.55067443847656, 2.108609676361084, 112.63008880615234, -0.355110228061676, 0.06987909227609634, -10.00729751586914, -0.07557027786970139, -0.2302325814962387, -0.48852384090423584, 
35, 1031353465, 179.55039978027344, 2.1137771606445312, 112.63433837890625, -0.3439059853553772, 0.07011100649833679, -10.013712882995605, -0.049829501658678055, -0.374419242143631, -0.5034047961235046, 
36, 1031370132, 179.5498809814453, 2.1165170669555664, 112.65196228027344, -0.3404048681259155, 0.0683949664235115, -10.006367683410645, -0.06743823736906052, -0.231833353638649, -0.5245864987373352, 
37, 1031386799, 179.54931640625, 2.1206815242767334, 112.6626205444336, -0.34656310081481934, 0.0675867423415184, -10.002662658691406, -0.07038368284702301, -0.3220284581184387, -0.4656388759613037, 
38, 1031403466, 179.54908752441406, 2.1247212886810303, 112.67835235595703, -0.35212409496307373, 0.07412762194871902, -10.002609252929688, -0.05327441170811653, -0.31622716784477234, -0.5148280262947083, 
39, 1031420133, 179.54791259765625, 2.127345085144043, 112.7035903930664, -0.3566301167011261, 0.05864980071783066, -10.00349235534668, -0.1100577712059021, -0.23033501207828522, -0.5171332359313965, 
40, 1031436800, 179.54568481445312, 2.1309821605682373, 112.7085952758789, -0.3529001474380493, 0.08275701105594635, -10.014442443847656, -0.17793141305446625, -0.28951314091682434, -0.5219995975494385, 
41, 1031453467, 179.5445098876953, 2.135593891143799, 112.71548461914062, -0.35553938150405884, 0.08136586844921112, -10.003417015075684, -0.10876432061195374, -0.34920355677604675, -0.43934741616249084, 
42, 1031470134, 179.5442352294922, 2.138089179992676, 112.73196411132812, -0.35474908351898193, 0.08073971420526505, -10.009800910949707, -0.05596374347805977, -0.2203204333782196, -0.4910082221031189, 
43, 1031486801, 179.54437255859375, 2.1417219638824463, 112.73533630371094, -0.3506077826023102, 0.057047657668590546, -9.988765716552734, -0.02786661498248577, -0.28828370571136475, -0.47799697518348694, 
44, 1031503468, 179.544677734375, 2.145010232925415, 112.74420928955078, -0.3534580171108246, 0.07813980430364609, -10.00059986114502, -0.02129695750772953, -0.268625944852829, -0.44192150235176086, 
45, 1031520135, 179.5436248779297, 2.148484468460083, 112.75104522705078, -0.3541947305202484, 0.0699184313416481, -9.998753547668457, -0.10247639566659927, -0.27951139211654663, -0.47866290807724, 
46, 1031536802, 179.54165649414062, 2.1506340503692627, 112.77519989013672, -0.3487088084220886, 0.08759919553995132, -9.99597454071045, -0.15762056410312653, -0.20020164549350739, -0.46210429072380066, 
47, 1031553469, 179.54058837890625, 2.154033899307251, 112.77462005615234, -0.3574526607990265, 0.06783349812030792, -10.007847785949707, -0.09992794692516327, -0.27624574303627014, -0.42784732580184937, 
48, 1031570136, 179.53941345214844, 2.155313491821289, 112.80415344238281, -0.3381481170654297, 0.08100847899913788, -9.99232006072998, -0.11041634529829025, -0.14834876358509064, -0.5351260900497437, 
49, 1031586803, 179.53773498535156, 2.1597137451171875, 112.79562377929688, -0.3439667820930481, 0.06293051689863205, -9.994136810302734, -0.13572168350219727, -0.33867672085762024, -0.40489837527275085, 
50, 1031603470, 179.535888671875, 2.1638247966766357, 112.8259506225586, -0.35878998041152954, 0.06870651245117188, -10.008681297302246, -0.14980867505073547, -0.3239494264125824, -0.45730191469192505, 
51, 1031620137, 179.53448486328125, 2.166534423828125, 112.82128143310547, -0.33768337965011597, 0.0683019831776619, -9.989516258239746, -0.12564310431480408, -0.2385566532611847, -0.5121899247169495, 
52, 1031636804, 179.53623962402344, 2.169943332672119, 112.84288024902344, -0.3449038565158844, 0.07500416785478592, -10.003181457519531, 0.06392289698123932, -0.28298190236091614, -0.4667401909828186, 
53, 1031653471, 179.53640747070312, 2.172150135040283, 112.8343276977539, -0.3466775417327881, 0.07751071453094482, -10.004064559936523, -0.03142677992582321, -0.21366111934185028, -0.48532217741012573, 
54, 1031670138, 179.5345916748047, 2.174567699432373, 112.84331512451172, -0.33819133043289185, 0.08219882100820541, -10.004075050354004, -0.15015442669391632, -0.2272486388683319, -0.45475345849990845, 
55, 1031686805, 179.53445434570312, 2.178511381149292, 112.8554458618164, -0.3562546670436859, 0.08154429495334625, -10.0057954788208, -0.04646143689751625, -0.32196441292762756, -0.42965301871299744, 
56, 1031703472, 179.53353881835938, 2.1820263862609863, 112.8541030883789, -0.34341961145401, 0.07076956331729889, -10.01225757598877, -0.09430596232414246, -0.29501989483833313, -0.5196688771247864, 
57, 1031720139, 179.53286743164062, 2.1843032836914062, 112.84449768066406, -0.3451541066169739, 0.07005760818719864, -10.003985404968262, -0.07970671355724335, -0.2228689193725586, -0.4589923322200775, 
58, 1031736806, 179.5319061279297, 2.188051223754883, 112.84867095947266, -0.34767162799835205, 0.07571230083703995, -10.000280380249023, -0.09737948328256607, -0.3131024241447449, -0.46560046076774597, 
59, 1031753473, 179.53062438964844, 2.190577745437622, 112.8680648803711, -0.3486015200614929, 0.07320854067802429, -10.006660461425781, -0.11824103444814682, -0.24023433029651642, -0.4966302514076233, 
60, 1031770140, 179.52874755859375, 2.1935250759124756, 112.8826675415039, -0.3383127748966217, 0.06811601668596268, -10.013105392456055, -0.15161436796188354, -0.2666409909725189, -0.43836137652397156, 
61, 1031786807, 179.5275421142578, 2.1969432830810547, 112.89322662353516, -0.3536010682582855, 0.0628625750541687, -9.993789672851562, -0.11382284760475159, -0.29760676622390747, -0.4606316387653351, 
62, 1031803474, 179.52545166015625, 2.2005975246429443, 112.89968872070312, -0.34176382422447205, 0.07424921542406082, -9.996540069580078, -0.16782718896865845, -0.3117833435535431, -0.44737693667411804, 
63, 1031820141, 179.52352905273438, 2.204042673110962, 112.91634368896484, -0.35755276679992676, 0.08741681277751923, -10.017464637756348, -0.15723638236522675, -0.30188411474227905, -0.45805758237838745, 
64, 1031836808, 179.5233154296875, 2.207120656967163, 112.92916870117188, -0.3463842272758484, 0.07327686250209808, -10.012032508850098, -0.055758845061063766, -0.2784612774848938, -0.479597806930542, 
65, 1031853475, 179.5240020751953, 2.2110397815704346, 112.95642852783203, -0.3426864743232727, 0.08988439291715622, -9.99551010131836, 0.00204261252656579, -0.33155637979507446, -0.4060509204864502, 
66, 1031870142, 179.5231170654297, 2.2157485485076904, 112.98455047607422, -0.3573489487171173, 0.07782899588346481, -10.007329940795898, -0.08949077129364014, -0.3811553716659546, -0.39355194568634033, 
67, 1031886809, 179.52284240722656, 2.217869997024536, 112.99525451660156, -0.3446498215198517, 0.06902437657117844, -10.007383346557617, -0.05847379192709923, -0.2243928462266922, -0.47382211685180664, 
68, 1031903476, 179.52090454101562, 2.2208738327026367, 113.01565551757812, -0.35539647936820984, 0.07817550748586655, -9.993550300598145, -0.1565576195716858, -0.2797803282737732, -0.4727719724178314, 
69, 1031920143, 179.5205535888672, 2.2249257564544678, 113.00691223144531, -0.34434226155281067, 0.07961710542440414, -9.996332168579102, -0.06372439116239548, -0.3424033522605896, -0.49522149562835693, 
70, 1031936810, 179.5194091796875, 2.22739315032959, 113.02223205566406, -0.33880260586738586, 0.07703182846307755, -9.977113723754883, -0.10914850980043411, -0.24922437965869904, -0.4581087529659271, 
71, 1031953477, 179.51718139648438, 2.230581760406494, 113.00748443603516, -0.35331854224205017, 0.06988982111215591, -9.998077392578125, -0.1736156940460205, -0.29546815156936646, -0.4399493634700775, 
72, 1031970144, 179.5159149169922, 2.234196662902832, 113.01102447509766, -0.3596232831478119, 0.07027648389339447, -9.988862037658691, -0.11784403026103973, -0.3213881552219391, -0.47047966718673706, 
73, 1031986811, 179.5150146484375, 2.2373831272125244, 113.00521087646484, -0.3599488437175751, 0.0907498374581337, -10.004350662231445, -0.09662391245365143, -0.2958907186985016, -0.46230921149253845, 
74, 1032003478, 179.51602172851562, 2.239982843399048, 113.00647735595703, -0.359587699174881, 0.07811184972524643, -9.97413158416748, 0.018793316558003426, -0.2608909606933594, -0.4478764235973358, 
75, 1032020145, 179.5159454345703, 2.2426605224609375, 112.99597930908203, -0.3430798649787903, 0.07731402665376663, -9.993439674377441, -0.046026017516851425, -0.26527073979377747, -0.47882941365242004, 
76, 1032036812, 179.51483154296875, 2.24587345123291, 113.00345611572266, -0.34663820266723633, 0.08194878697395325, -9.991555213928223, -0.10805997997522354, -0.3000527620315552, -0.4573532044887543, 
77, 1032053479, 179.51414489746094, 2.2497236728668213, 113.01140594482422, -0.3575599193572998, 0.0766238197684288, -9.99604606628418, -0.08334372192621231, -0.3392529785633087, -0.4836958050727844, 
78, 1032070146, 179.5119171142578, 2.2522706985473633, 113.0278549194336, -0.34477499127388, 0.0705585703253746, -9.997952461242676, -0.17821314930915833, -0.2618130147457123, -0.5423232913017273, 
79, 1032086813, 179.51190185546875, 2.256117343902588, 113.05220031738281, -0.34015095233917236, 0.0829787403345108, -9.9933500289917, -0.042209722101688385, -0.34233930706977844, -0.4461604058742523, 
80, 1032103480, 179.51071166992188, 2.258021354675293, 113.05697631835938, -0.3501106798648834, 0.06463994830846786, -9.993300437927246, -0.11337460577487946, -0.228785440325737, -0.4572378993034363, 
81, 1032120147, 179.51129150390625, 2.2600369453430176, 113.06861114501953, -0.3545988202095032, 0.07587996870279312, -9.997798919677734, -0.007542939390987158, -0.23639239370822906, -0.4395907521247864, 
82, 1032136814, 179.51025390625, 2.263113021850586, 113.09199523925781, -0.3534652590751648, 0.0786118134856224, -9.993200302124023, -0.10551150888204575, -0.3017304241657257, -0.4360561966896057, 
83, 1032153481, 179.50942993164062, 2.2650532722473145, 113.11167907714844, -0.356136679649353, 0.0706297904253006, -10.00049877166748, -0.09201361984014511, -0.2344074249267578, -0.45075786113739014, 
84, 1032170148, 179.50747680664062, 2.2674014568328857, 113.14540100097656, -0.35503512620925903, 0.07727111130952835, -9.994974136352539, -0.15981045365333557, -0.25943106412887573, -0.4243384301662445, 
85, 1032186815, 179.5060272216797, 2.270052671432495, 113.15148162841797, -0.33756163716316223, 0.07428895682096481, -10.011560440063477, -0.13374952971935272, -0.27883264422416687, -0.5039554238319397, 
86, 1032203482, 179.50411987304688, 2.272827625274658, 113.14427185058594, -0.33997929096221924, 0.06266587972640991, -9.997817039489746, -0.15969517827033997, -0.2897436320781708, -0.44650617241859436, 
87, 1032220149, 179.50411987304688, 2.275784730911255, 113.16563415527344, -0.3444853127002716, 0.06212944909930229, -9.998675346374512, -0.046487051993608475, -0.30299824476242065, -0.43709349632263184, 
88, 1032236816, 179.5037841796875, 2.278019428253174, 113.17023468017578, -0.35734185576438904, 0.06847691535949707, -9.996712684631348, -0.06796330213546753, -0.26297837495803833, -0.4172949492931366, 
89, 1032253483, 179.5027313232422, 2.2812960147857666, 113.1806869506836, -0.3351013660430908, 0.0588393397629261, -9.995960235595703, -0.11377162486314774, -0.32464098930358887, -0.49588748812675476, 
90, 1032270150, 179.5026397705078, 2.2830443382263184, 113.22238159179688, -0.3362385034561157, 0.06830587983131409, -10.005977630615234, -0.05769260600209236, -0.23662294447422028, -0.47794580459594727, 
91, 1032286817, 179.5027618408203, 2.285870313644409, 113.24872589111328, -0.34420278668403625, 0.06375304609537125, -10.005906105041504, -0.043925780802965164, -0.3054570257663727, -0.41826820373535156, 
92, 1032303484, 179.50253295898438, 2.2878408432006836, 113.26537322998047, -0.35542136430740356, 0.08203104138374329, -10.008495330810547, -0.06829625368118286, -0.2546926736831665, -0.49432507157325745, 
93, 1032320151, 179.5012664794922, 2.2900030612945557, 113.26477813720703, -0.34678468108177185, 0.06854550540447235, -10.000337600708008, -0.12951061129570007, -0.269087016582489, -0.4449310004711151, 
94, 1032336818, 179.5008544921875, 2.293274164199829, 113.28211975097656, -0.330409437417984, 0.08376143872737885, -10.005895614624023, -0.08097454160451889, -0.3358848989009857, -0.5124204158782959, 
95, 1032353485, 179.5007781982422, 2.294145345687866, 113.28360748291016, -0.34780415892601013, 0.0818803682923317, -9.998414039611816, -0.0577310211956501, -0.19734583795070648, -0.4172564744949341, 
96, 1032370152, 179.5009307861328, 2.296602964401245, 113.27328491210938, -0.3567230999469757, 0.08466313034296036, -10.006553649902344, -0.04585953429341316, -0.29390567541122437, -0.4747953712940216, 
97, 1032386819, 179.49996948242188, 2.299398183822632, 113.24344635009766, -0.35192739963531494, 0.07109499722719193, -10.008438110351562, -0.11024987697601318, -0.3157278001308441, -0.4212905168533325, 
98, 1032403486, 179.49752807617188, 2.301417350769043, 113.28910827636719, -0.34731051325798035, 0.06961087137460709, -10.004794120788574, -0.19805020093917847, -0.2713153064250946, -0.37498268485069275, 
99, 1032420153, 179.49688720703125, 2.303607940673828, 113.31362915039062, -0.3370538651943207, 0.06845256686210632, -9.999361991882324, -0.09513836354017258, -0.2827513813972473, -0.48443859815597534, 
100, 1032436820, 179.4967041015625, 2.306584358215332, 113.33692932128906, -0.3470100462436676, 0.06671814620494843, -9.998346328735352, -0.06679791957139969, -0.33340051770210266, -0.449374794960022, 
101, 1032453487, 179.49581909179688, 2.308802604675293, 113.33848571777344, -0.35090088844299316, 0.06962203234434128, -10.01384162902832, -0.11414298415184021, -0.2893722653388977, -0.5294272899627686, 
102, 1032470154, 179.49563598632812, 2.3109631538391113, 113.33709716796875, -0.3398040533065796, 0.07551519572734833, -9.999247550964355, -0.06866764277219772, -0.2891802191734314, -0.43454509973526, 
103, 1032486821, 179.49485778808594, 2.3128488063812256, 113.323974609375, -0.341374009847641, 0.06921391934156418, -9.98641586303711, -0.10394912958145142, -0.2746961712837219, -0.4204452335834503, 
104, 1032503488, 179.49478149414062, 2.314528226852417, 113.31954193115234, -0.3576957583427429, 0.06468677520751953, -9.989011764526367, -0.06483854353427887, -0.26536035537719727, -0.4550352096557617, 
105, 1032520155, 179.49456787109375, 2.316314697265625, 113.31161499023438, -0.35053983330726624, 0.08600063621997833, -9.988990783691406, -0.07458417862653732, -0.2728136479854584, -0.45171841979026794, 
106, 1032536822, 179.4938201904297, 2.3194262981414795, 113.31192779541016, -0.35473471879959106, 0.05960822477936745, -10.001829147338867, -0.10788068175315857, -0.35410839319229126, -0.5148023962974548, 
107, 1032553489, 179.4935302734375, 2.320661783218384, 113.31487274169922, -0.346981406211853, 0.08016461133956909, -10.00912857055664, -0.0816020667552948, -0.2432822436094284, -0.5024699568748474, 
108, 1032570156, 179.49266052246094, 2.3223705291748047, 113.32040405273438, -0.3466525077819824, 0.08031804114580154, -9.994462013244629, -0.11456560343503952, -0.2756182849407196, -0.41466963291168213, 
109, 1032586823, 179.4927215576172, 2.3243799209594727, 113.33650970458984, -0.3482618033885956, 0.07054068893194199, -9.998117446899414, -0.060714900493621826, -0.29393133521080017, -0.49934515357017517, 
110, 1032603490, 179.4918670654297, 2.3259546756744385, 113.35945129394531, -0.3610932230949402, 0.07050492614507675, -10.005301475524902, -0.11840751022100449, -0.27055972814559937, -0.5277624726295471, 
111, 1032620157, 179.49176025390625, 2.3277409076690674, 113.36804962158203, -0.3455832302570343, 0.08293940126895905, -10.00355339050293, -0.07206133008003235, -0.2859017848968506, -0.455022394657135, 
112, 1032636824, 179.4915313720703, 2.3292925357818604, 113.39429473876953, -0.34871596097946167, 0.06378523260354996, -9.986162185668945, -0.07788821309804916, -0.2736460864543915, -0.4566360414028168, 
113, 1032653491, 179.49185180664062, 2.330631732940674, 113.39970397949219, -0.3515090048313141, 0.06581616401672363, -10.000760078430176, -0.047780487686395645, -0.26270943880081177, -0.4813394546508789, 
114, 1032670158, 179.4911651611328, 2.332376718521118, 113.40029907226562, -0.351419597864151, 0.0713954046368599, -9.997058868408203, -0.10524258017539978, -0.2903839945793152, -0.37621212005615234, 
115, 1032686825, 179.49021911621094, 2.3335254192352295, 113.42372131347656, -0.3623019754886627, 0.06967524439096451, -9.996025085449219, -0.12376055866479874, -0.2568441331386566, -0.4235827922821045, 
116, 1032703492, 179.49002075195312, 2.3345658779144287, 113.4395523071289, -0.34574413299560547, 0.07393451035022736, -9.997981071472168, -0.08602025359869003, -0.24974942207336426, -0.5745824575424194, 
117, 1032720159, 179.48873901367188, 2.3369932174682617, 113.47493743896484, -0.3544701039791107, 0.06480444967746735, -9.986920356750488, -0.14632534980773926, -0.33646121621131897, -0.47443678975105286, 
118, 1032736826, 179.58425903320312, 1.9977084398269653, 112.77947235107422, -0.34391316771507263, 0.07459577918052673, -10.008024215698242, -0.04666633903980255, -0.27504193782806396, -0.4412171542644501, 
119, 1032753493, 179.58322143554688, 1.9973987340927124, 112.7733383178711, -0.34640949964523315, 0.07460645586252213, -9.993329048156738, -0.15938784182071686, -0.2602890729904175, -0.5053898096084595, 
120, 1032770160, 179.58412170410156, 1.9981797933578491, 112.7468490600586, -0.35458093881607056, 0.07402034103870392, -10.003302574157715, -0.040429648011922836, -0.32665157318115234, -0.4265795350074768, 
121, 1032786827, 179.5841827392578, 1.9974186420440674, 112.76133728027344, -0.34272223711013794, 0.07794343680143356, -9.996969223022461, -0.09234657883644104, -0.23353657126426697, -0.4925578236579895, 
122, 1032803494, 179.5834197998047, 1.9983561038970947, 112.75384521484375, -0.3506077826023102, 0.07526843249797821, -9.988643646240234, -0.14040881395339966, -0.33564162254333496, -0.44331738352775574, 
123, 1032820161, 179.58401489257812, 1.9981443881988525, 112.72640991210938, -0.3508545458316803, 0.07388444244861603, -10.008759498596191, -0.06167537346482277, -0.26689714193344116, -0.47966182231903076, 
124, 1032836828, 179.58413696289062, 1.9985116720199585, 112.74254608154297, -0.3426041603088379, 0.08240330964326859, -10.006959915161133, -0.08563605695962906, -0.30082112550735474, -0.4140292704105377, 
125, 1032853495, 179.5842742919922, 1.9977734088897705, 112.75408172607422, -0.35613301396369934, 0.06776554882526398, -10.014178276062012, -0.08630198985338211, -0.23603381216526031, -0.4352237582206726, 
126, 1032870162, 179.58314514160156, 1.9973987340927124, 112.75557708740234, -0.3413773775100708, 0.07556205242872238, -10.012457847595215, -0.16430547833442688, -0.2562934458255768, -0.49468371272087097, 
127, 1032886829, 179.5811309814453, 1.9967819452285767, 112.7569808959961, -0.3577601909637451, 0.07574049383401871, -10.018672943115234, -0.21965453028678894, -0.24189916253089905, -0.5517359972000122, 
128, 1032903496, 179.58106994628906, 1.997192621231079, 112.76249694824219, -0.3528178930282593, 0.08091168850660324, -9.994880676269531, -0.09818626940250397, -0.30327996611595154, -0.4672524333000183, 
129, 1032920163, 179.58326721191406, 1.9961719512939453, 112.75682067871094, -0.3396753966808319, 0.06491199880838394, -9.994135856628418, 0.03724726662039757, -0.21770793199539185, -0.44322773814201355, 
130, 1032936830, 179.5819091796875, 1.997240424156189, 112.76128387451172, -0.3407374620437622, 0.08128003776073456, -10.005959510803223, -0.1773807406425476, -0.3433254063129425, -0.4750899374485016, 
131, 1032953497, 179.57899475097656, 1.9965640306472778, 112.77330780029297, -0.3527928590774536, 0.07702435553073883, -10.018633842468262, -0.2710079550743103, -0.23920980095863342, -0.4940689504146576, 
132, 1032970164, 179.5777130126953, 1.9950203895568848, 112.77027893066406, -0.35151615738868713, 0.07683481276035309, -10.005813598632812, -0.17029881477355957, -0.18680621683597565, -0.4248506426811218, 
133, 1032986831, 179.5777587890625, 1.994832992553711, 112.8023681640625, -0.353522390127182, 0.06166096776723862, -9.997591018676758, -0.0918983668088913, -0.26798564195632935, -0.4615023732185364, 
134, 1033003498, 179.57774353027344, 1.9941749572753906, 112.8006820678711, -0.3502000868320465, 0.08304310590028763, -10.004855155944824, -0.09809663146734238, -0.2392866313457489, -0.4982950687408447, 
135, 1033020165, 179.57992553710938, 1.9939130544662476, 112.81842803955078, -0.34085190296173096, 0.09074626117944717, -9.993922233581543, 0.03590260073542595, -0.26351624727249146, -0.46793121099472046, 
136, 1033036832, 179.579833984375, 1.993105411529541, 112.8021240234375, -0.3469886779785156, 0.0877172127366066, -9.986519813537598, -0.10151592642068863, -0.23028378188610077, -0.5097182989120483, 
137, 1033053499, 179.58035278320312, 1.9931004047393799, 112.84834289550781, -0.34230026602745056, 0.07900914549827576, -10.012228965759277, -0.063852459192276, -0.27921685576438904, -0.4518336057662964, 
138, 1033070166, 179.5801544189453, 1.992749571800232, 112.87992095947266, -0.3529895544052124, 0.07070877403020859, -10.008459091186523, -0.10601095855236053, -0.2582528293132782, -0.478598952293396, 
139, 1033086833, 179.578369140625, 1.9917259216308594, 112.87271881103516, -0.348093718290329, 0.0682876780629158, -9.998435020446777, -0.20126459002494812, -0.21825860440731049, -0.44110187888145447, 
140, 1033103500, 179.577880859375, 1.991972804069519, 112.8641128540039, -0.3351263999938965, 0.07731402665376663, -9.994866371154785, -0.12459297478199005, -0.2936496138572693, -0.49006062746047974, 
141, 1033120167, 179.57772827148438, 1.9916669130325317, 112.82634735107422, -0.35155534744262695, 0.07277979701757431, -10.002912521362305, -0.10633110255002975, -0.2605835795402527, -0.5392752885818481, 
142, 1033136834, 179.5772247314453, 1.9913347959518433, 112.82819366455078, -0.3405264616012573, 0.07512181252241135, -10.008509635925293, -0.12568150460720062, -0.25925174355506897, -0.48177486658096313, 
143, 1033153501, 179.5770721435547, 1.991191029548645, 112.83110809326172, -0.3485800623893738, 0.0752827376127243, -10.005648612976074, -0.1042436808347702, -0.270521342754364, -0.4778304994106293, 
144, 1033170168, 179.5777587890625, 1.9917802810668945, 112.81827545166016, -0.3527642786502838, 0.06900972127914429, -9.992785453796387, -0.05095646530389786, -0.31521546840667725, -0.41020017862319946, 
145, 1033186835, 179.57839965820312, 1.9915493726730347, 112.82770538330078, -0.34726759791374207, 0.06196494400501251, -10.003846168518066, -0.05669371411204338, -0.26515549421310425, -0.46661216020584106, 
146, 1033203502, 179.5792236328125, 1.99174165725708, 112.81278991699219, -0.33996856212615967, 0.07230018079280853, -10.000208854675293, -0.044822223484516144, -0.2913316488265991, -0.4429844319820404, 
147, 1033220169, 179.58119201660156, 1.9939789772033691, 112.83460998535156, -0.35360822081565857, 0.06757958978414536, -10.005537986755371, 0.024504952132701874, -0.4136066734790802, -0.432175874710083, 
148, 1033236836, 179.58192443847656, 1.9929958581924438, 112.83411407470703, -0.3567052483558655, 0.07925919443368912, -9.989859580993652, -0.051340654492378235, -0.22088390588760376, -0.45264044404029846, 
149, 1033253503, 179.58001708984375, 1.9927233457565308, 112.82626342773438, -0.3456728458404541, 0.0787656307220459, -10.009210586547852, -0.2081928253173828, -0.26268380880355835, -0.44028228521347046, 
150, 1033270170, 179.5792999267578, 1.99307119846344, 112.82572937011719, -0.35269272327423096, 0.07187103480100632, -10.00821590423584, -0.13827015459537506, -0.30044975876808167, -0.45882585644721985, 
151, 1033286837, 179.5799102783203, 1.9921355247497559, 112.8205337524414, -0.3417101800441742, 0.07793628424406052, -10.001896858215332, -0.05789750814437866, -0.2225743532180786, -0.45422840118408203, 
152, 1033303504, 179.57992553710938, 1.992279291152954, 112.81910705566406, -0.34862667322158813, 0.07606201618909836, -9.992650032043457, -0.09310215711593628, -0.2885782718658447, -0.42793697118759155, 
153, 1033320171, 179.5795440673828, 1.9925427436828613, 112.83873748779297, -0.3413238227367401, 0.06739398837089539, -10.014732360839844, -0.11687073856592178, -0.2953656017780304, -0.43600496649742126, 
154, 1033336838, 179.579833984375, 1.9929119348526, 112.83938598632812, -0.34849074482917786, 0.07115544378757477, -9.999959945678711, -0.07577517628669739, -0.3015126883983612, -0.42888468503952026, 
155, 1033353505, 179.57894897460938, 1.9951521158218384, 112.83757781982422, -0.3576350212097168, 0.06389609724283218, -10.01358413696289, -0.14874574542045593, -0.4136194586753845, -0.4918022155761719, 
156, 1033370172, 179.57986450195312, 1.9950120449066162, 112.8311767578125, -0.34891629219055176, 0.07453140616416931, -10.00721549987793, -0.04095470532774925, -0.27076461911201477, -0.4454432427883148, 
157, 1033386839, 179.58091735839844, 1.9944641590118408, 112.8531494140625, -0.34344106912612915, 0.08569665253162384, -9.99989128112793, -0.032400064170360565, -0.2460099756717682, -0.47576868534088135, 
158, 1033403506, 179.5809326171875, 1.9952822923660278, 112.84864807128906, -0.35679110884666443, 0.07268594950437546, -10.0061674118042, -0.09479259699583054, -0.32779133319854736, -0.4976803660392761, 
159, 1033420173, 179.58079528808594, 1.9939497709274292, 112.85423278808594, -0.35223138332366943, 0.07846556603908539, -9.994279861450195, -0.10334724187850952, -0.19925399124622345, -0.46864837408065796, 
160, 1033436840, 179.58067321777344, 1.9942097663879395, 112.8544921875, -0.34284740686416626, 0.08078652620315552, -9.998953819274902, -0.103219173848629, -0.29431554675102234, -0.48034054040908813, 
161, 1033453507, 179.5816650390625, 1.9941139221191406, 112.84701538085938, -0.34558677673339844, 0.07011154294013977, -10.020010948181152, -0.03628038614988327, -0.2730697989463806, -0.48646196722984314, 
162, 1033470174, 179.58189392089844, 1.9930921792984009, 112.8497085571289, -0.3565049469470978, 0.0835866928100586, -10.000555992126465, -0.08266498893499374, -0.2178872525691986, -0.4663688540458679, 
163, 1033486841, 179.5817413330078, 1.9924225807189941, 112.84629821777344, -0.3540301024913788, 0.06917848438024521, -9.996979713439941, -0.10476873815059662, -0.2385566532611847, -0.49823102355003357, 
164, 1033503508, 179.58175659179688, 1.992513656616211, 112.8366470336914, -0.351784348487854, 0.05761627480387688, -10.001622200012207, -0.09438280016183853, -0.28435218334198, -0.4918534457683563, 
165, 1033520175, 179.5801239013672, 1.9932082891464233, 112.82475280761719, -0.35976624488830566, 0.05761668458580971, -9.988676071166992, -0.19285081326961517, -0.3199922442436218, -0.44701844453811646, 
166, 1033536842, 179.58067321777344, 1.9934381246566772, 112.80850219726562, -0.35035738348960876, 0.07767204940319061, -10.003338813781738, -0.06392929702997208, -0.2922152578830719, -0.4855270981788635, 
167, 1033553509, 179.58157348632812, 1.9939854145050049, 112.78539276123047, -0.33370304107666016, 0.07634129375219345, -9.997147560119629, -0.040583327412605286, -0.31168097257614136, -0.458685040473938, 
168, 1033570176, 179.58221435546875, 1.9934618473052979, 112.77215576171875, -0.351559042930603, 0.08436630666255951, -10.016984939575195, -0.05397876352071762, -0.2480461597442627, -0.3961388170719147, 
169, 1033586843, 179.58282470703125, 1.9933230876922607, 112.76006317138672, -0.35540348291397095, 0.07059433311223984, -10.00049877166748, -0.05911410599946976, -0.2700859010219574, -0.4642045199871063, 
170, 1033603510, 179.58425903320312, 1.993134617805481, 112.76652526855469, -0.339578777551651, 0.06741508096456528, -9.996139526367188, -0.011039073579013348, -0.26697394251823425, -0.4989481568336487, 
171, 1033620177, 179.58291625976562, 1.993613600730896, 112.76216125488281, -0.3515411913394928, 0.07175302505493164, -10.002347946166992, -0.17489629983901978, -0.30757012963294983, -0.4380667805671692, 
172, 1033636844, 179.5831298828125, 1.9942312240600586, 112.76277923583984, -0.3463270664215088, 0.08517095446586609, -10.001421928405762, -0.08142276108264923, -0.3162783980369568, -0.4493876099586487, 
173, 1033653511, 179.58319091796875, 1.994941234588623, 112.75379943847656, -0.3449573814868927, 0.0725397914648056, -9.989577293395996, -0.09305092692375183, -0.32126009464263916, -0.47882941365242004, 
174, 1033670178, 179.58285522460938, 1.996093988418579, 112.74683380126953, -0.3509010374546051, 0.07461041212081909, -10.016016006469727, -0.11292638629674911, -0.3478076159954071, -0.4369526207447052, 
175, 1033686845, 179.58401489257812, 1.99516761302948, 112.75797271728516, -0.3358416259288788, 0.06419317424297333, -9.997943878173828, -0.02490835078060627, -0.2238806039094925, -0.4143366813659668, 
176, 1033703512, 179.58404541015625, 1.9956660270690918, 112.75712585449219, -0.35097256302833557, 0.08774939924478531, -10.009507179260254, -0.09320460259914398, -0.3081463575363159, -0.479623407125473, 
177, 1033720179, 179.58334350585938, 1.9967436790466309, 112.7576675415039, -0.35987016558647156, 0.07225726544857025, -10.018590927124023, -0.13558083772659302, -0.3441450595855713, -0.3884166181087494, 
178, 1033736846, 179.5830535888672, 1.996036171913147, 112.77339172363281, -0.3420426547527313, 0.0683380514383316, -9.989548683166504, -0.11283674091100693, -0.23627716302871704, -0.46699637174606323, 
179, 1033753513, 179.582275390625, 1.9959959983825684, 112.7700424194336, -0.35168421268463135, 0.0610637404024601, -9.987595558166504, -0.14069055020809174, -0.2769117057323456, -0.41609111428260803, 
180, 1033770180, 179.58050537109375, 1.9963375329971313, 112.78295135498047, -0.3540838658809662, 0.07797204703092575, -10.005770683288574, -0.19831912219524384, -0.29984787106513977, -0.3796570301055908, 
181, 1033786847, 179.58023071289062, 1.9967689514160156, 112.78736114501953, -0.34502533078193665, 0.08606500178575516, -10.00218677520752, -0.10899484902620316, -0.3052777945995331, -0.3917975127696991, 
182, 1033803514, 179.58023071289062, 1.9972515106201172, 112.79718780517578, -0.3553677201271057, 0.05865337699651718, -10.005809783935547, -0.0965982973575592, -0.3073267936706543, -0.49026548862457275, 
183, 1033820181, 179.5811309814453, 1.9979079961776733, 112.7955093383789, -0.34065163135528564, 0.0656055212020874, -9.9913330078125, -0.04228656738996506, -0.3181481659412384, -0.4808656573295593, 
184, 1033836848, 179.58114624023438, 1.9971073865890503, 112.78892517089844, -0.3408088684082031, 0.07391691952943802, -9.986687660217285, -0.09307654201984406, -0.23036061227321625, -0.43843817710876465, 
185, 1033853515, 179.5821075439453, 1.998517632484436, 112.7752914428711, -0.3487231135368347, 0.06848794221878052, -9.990242004394531, -0.03734331578016281, -0.36407172679901123, -0.44742828607559204, 
186, 1033870182, 179.5820770263672, 1.9978487491607666, 112.7657699584961, -0.35304319858551025, 0.08135156333446503, -10.00200080871582, -0.09725141525268555, -0.2385566532611847, -0.46220675110816956, 
187, 1033886849, 179.58140563964844, 1.9973620176315308, 112.75878143310547, -0.3509904444217682, 0.07893047481775284, -10.005687713623047, -0.13762983679771423, -0.248788982629776, -0.5061838030815125, 
188, 1033903516, 179.58029174804688, 1.9975593090057373, 112.75497436523438, -0.348891019821167, 0.0802290067076683, -9.998371124267578, -0.1611679196357727, -0.291088342666626, -0.4389120042324066, 
189, 1033920183, 179.58126831054688, 1.9966723918914795, 112.75585174560547, -0.34732842445373535, 0.0605413056910038, -9.993901252746582, -0.03768908604979515, -0.22545577585697174, -0.4741166830062866, 
190, 1033936850, 179.58218383789062, 1.9969372749328613, 112.74189758300781, -0.3493024706840515, 0.07159924507141113, -10.001124382019043, -0.04085225611925125, -0.2943539619445801, -0.47099190950393677, 
191, 1033953517, 179.58334350585938, 1.9984087944030762, 112.73198699951172, -0.34859079122543335, 0.0763341411948204, -10.0093355178833, -0.025984086096286774, -0.36713242530822754, -0.4721316993236542, 
192, 1033970184, 179.58323669433594, 1.998291015625, 112.72714233398438, -0.33475813269615173, 0.074846051633358, -9.995810508728027, -0.10206659883260727, -0.2713153064250946, -0.5007795095443726, 
193, 1033986851, 179.58236694335938, 1.9978631734848022, 112.72882843017578, -0.3504575788974762, 0.07933100312948227, -10.00376033782959, -0.1456594318151474, -0.2541676461696625, -0.3880964517593384, 
194, 1034003518, 179.58322143554688, 1.996517300605774, 112.721435546875, -0.3454759418964386, 0.07523982226848602, -9.996521949768066, -0.043836139142513275, -0.19764040410518646, -0.4780866801738739, 
195, 1034020185, 179.58265686035156, 1.9969990253448486, 112.71975708007812, -0.34991759061813354, 0.07892332226037979, -10.002830505371094, -0.13198222219944, -0.3077493906021118, -0.5104867219924927, 
196, 1034036852, 179.5816650390625, 1.9986191987991333, 112.71251678466797, -0.35069718956947327, 0.07376642525196075, -10.003742218017578, -0.15243397653102875, -0.3763273358345032, -0.4146055281162262, 
197, 1034053519, 179.58262634277344, 1.997342824935913, 112.7139892578125, -0.35627248883247375, 0.07038333266973495, -10.003645896911621, -0.03693350777029991, -0.202570840716362, -0.4404487609863281, 
198, 1034070186, 179.5823516845703, 1.9971518516540527, 112.69615936279297, -0.34497156739234924, 0.06985443085432053, -10.004740715026855, -0.1136307343840599, -0.2665513753890991, -0.5023162364959717, 
199, 1034086853, 179.58090209960938, 1.996646761894226, 112.68546295166016, -0.34874099493026733, 0.07467836141586304, -10.011960983276367, -0.18017250299453735, -0.24890421330928802, -0.3910674750804901, 
200, 1034103520, 179.581298828125, 1.9968241453170776, 112.69702911376953, -0.3631102740764618, 0.07747460901737213, -10.001626014709473, -0.07093437016010284, -0.28993573784828186, -0.4338919222354889, 
201, 1034120187, 179.5804901123047, 1.9973838329315186, 112.71121978759766, -0.3438807725906372, 0.08273954689502716, -9.997319221496582, -0.14302131533622742, -0.31214192509651184, -0.4628598988056183, 
202, 1034136854, 179.5806884765625, 1.99822998046875, 112.7070083618164, -0.3558899164199829, 0.08556027710437775, -9.99891471862793, -0.08578973263502121, -0.3292512595653534, -0.5101281404495239, 
203, 1034153521, 179.58145141601562, 1.9977786540985107, 112.71806335449219, -0.3354089558124542, 0.06988584995269775, -10.002076148986816, -0.05198097974061966, -0.2507995665073395, -0.552786111831665, 
204, 1034170188, 179.5818328857422, 1.998209834098816, 112.70594787597656, -0.3552783131599426, 0.0657879114151001, -10.002666473388672, -0.07261199504137039, -0.30461183190345764, -0.46424293518066406, 
205, 1034186855, 179.58270263671875, 1.997148871421814, 112.70264434814453, -0.3451898396015167, 0.06898146122694016, -9.998220443725586, -0.04278601333498955, -0.21565891802310944, -0.4716322422027588, 
206, 1034203522, 179.58348083496094, 1.997620940208435, 112.68836212158203, -0.3384808599948883, 0.06563055515289307, -10.002923965454102, -0.04839519411325455, -0.30689138174057007, -0.4144518971443176, 
207, 1034220189, 179.58534240722656, 1.9983118772506714, 112.6671371459961, -0.346988707780838, 0.0828397125005722, -9.990760803222656, 0.015899082645773888, -0.3204917013645172, -0.49127715826034546, 
208, 1034236856, 179.58750915527344, 1.9993808269500732, 112.6689224243164, -0.3359130918979645, 0.07759968191385269, -9.992795944213867, 0.03455793112516403, -0.34248021245002747, -0.4537929594516754, 
209, 1034253523, 179.58729553222656, 1.9996819496154785, 112.66387939453125, -0.36180490255355835, 0.07772171497344971, -10.001489639282227, -0.10822645574808121, -0.29687678813934326, -0.49260905385017395, 
210, 1034270190, 179.5887451171875, 1.998877763748169, 112.66189575195312, -0.35747411847114563, 0.08367277681827545, -10.008840560913086, -0.006889816839247942, -0.23086006939411163, -0.41949763894081116, 
211, 1034286857, 179.5905303955078, 2.0002193450927734, 112.67311096191406, -0.35701999068260193, 0.08360504359006882, -9.996017456054688, 0.011813856661319733, -0.35999932885169983, -0.4602217674255371, 
212, 1034303524, 179.59095764160156, 1.9994885921478271, 112.68431854248047, -0.33805879950523376, 0.08141983300447464, -10.007329940795898, -0.0696665346622467, -0.2348812371492386, -0.47963622212409973, 
213, 1034320191, 179.59019470214844, 1.9991835355758667, 112.68020629882812, -0.34424570202827454, 0.07869444042444229, -10.01180362701416, -0.14243221282958984, -0.25964874029159546, -0.49791085720062256, 
214, 1034336858, 179.58900451660156, 1.9984214305877686, 112.68586730957031, -0.34363776445388794, 0.07621970772743225, -9.98984146118164, -0.16659781336784363, -0.23294752836227417, -0.49926838278770447, 
215, 1034353525, 179.5888214111328, 1.998395562171936, 112.69156646728516, -0.3560470640659332, 0.06174361705780029, -10.004340171813965, -0.1086234524846077, -0.27716782689094543, -0.5056458711624146, 
216, 1034370192, 179.58876037597656, 1.9983280897140503, 112.68865203857422, -0.3455082178115845, 0.0779431089758873, -10.008996963500977, -0.09736668318510056, -0.27476024627685547, -0.433610200881958, 
217, 1034386859, 179.5891571044922, 1.9985724687576294, 112.69129180908203, -0.3511907756328583, 0.0642210990190506, -9.997058868408203, -0.0724199116230011, -0.29380327463150024, -0.5183241963386536, 
218, 1034403526, 179.5892791748047, 1.9982616901397705, 112.67276763916016, -0.3552139401435852, 0.06624209135770798, -10.017099380493164, -0.08788996934890747, -0.2598152160644531, -0.45086026191711426, 
219, 1034420193, 179.5902862548828, 1.997765302658081, 112.6693115234375, -0.3466668128967285, 0.07392735779285431, -9.996135711669922, -0.03293792903423309, -0.24922437965869904, -0.4283723533153534, 
220, 1034436860, 179.58921813964844, 1.9977844953536987, 112.6658935546875, -0.34270793199539185, 0.0668250098824501, -10.00173282623291, -0.16078370809555054, -0.2804846465587616, -0.4781378507614136, 
221, 1034453527, 179.58897399902344, 1.9975669384002686, 112.65696716308594, -0.3462948799133301, 0.07714236527681351, -9.9860258102417, -0.11071088910102844, -0.26482251286506653, -0.5343064665794373, 
222, 1034470194, 179.58717346191406, 1.9974805116653442, 112.65636444091797, -0.35159504413604736, 0.0754396989941597, -9.985925674438477, -0.20531141757965088, -0.2737485468387604, -0.49412021040916443, 
223, 1034486861, 179.5880584716797, 1.996993064880371, 112.64300537109375, -0.3570234775543213, 0.07133138924837112, -9.99591064453125, -0.044425223022699356, -0.24909627437591553, -0.520104169845581, 
224, 1034503528, 179.58987426757812, 1.9966720342636108, 112.64431762695312, -0.3477753698825836, 0.07445985078811646, -9.99604606628418, 0.013440263457596302, -0.2589699923992157, -0.48130103945732117, 
225, 1034520195, 179.58909606933594, 1.9973255395889282, 112.62806701660156, -0.34710681438446045, 0.08724115788936615, -9.9959716796875, -0.14029356837272644, -0.31799450516700745, -0.45057862997055054, 
226, 1034536862, 179.5910186767578, 1.9981900453567505, 112.62664031982422, -0.35263556241989136, 0.07659558951854706, -10.015142440795898, 0.019958699122071266, -0.3311850428581238, -0.4307800233364105, 
227, 1034553529, 179.59063720703125, 1.9971195459365845, 112.61434936523438, -0.33981478214263916, 0.08504578471183777, -9.997923851013184, -0.11518030613660812, -0.2153259515762329, -0.40128692984580994, 
228, 1034570196, 179.59178161621094, 1.9966715574264526, 112.6153335571289, -0.34263283014297485, 0.06967166811227798, -9.993371963500977, -0.02686772309243679, -0.25138866901397705, -0.4850277006626129, 
229, 1034586863, 179.59225463867188, 1.9969351291656494, 112.6119613647461, -0.3582429885864258, 0.07566539198160172, -9.99486255645752, -0.06707965582609177, -0.294686883687973, -0.47330987453460693, 
230, 1034603530, 179.59130859375, 1.9969385862350464, 112.6080093383789, -0.3431154787540436, 0.05894339457154274, -10.000727653503418, -0.15138384699821472, -0.27890950441360474, -0.434749960899353, 
231, 1034620197, 179.58999633789062, 1.9975398778915405, 112.61360931396484, -0.33739012479782104, 0.05949736014008522, -9.99349308013916, -0.17752161622047424, -0.3141397535800934, -0.5698697566986084, 
232, 1034636864, 179.5902862548828, 1.9971272945404053, 112.62255859375, -0.35053983330726624, 0.06965021044015884, -9.994083404541016, -0.07787541300058365, -0.2545646131038666, -0.5075156092643738, 
233, 1034653531, 179.59051513671875, 1.9976576566696167, 112.6295166015625, -0.34827253222465515, 0.06620632857084274, -9.985897064208984, -0.082306407392025, -0.3105155825614929, -0.464191734790802, 
234, 1034670198, 179.59078979492188, 1.997839331626892, 112.62834167480469, -0.3525567352771759, 0.07284773141145706, -10.007737159729004, -0.07948900759220123, -0.28911614418029785, -0.47727981209754944, 
235, 1034686865, 179.591552734375, 1.9991240501403809, 112.62775421142578, -0.35956618189811707, 0.07003286480903625, -9.999361991882324, -0.047575585544109344, -0.3568105101585388, -0.4253500998020172, 
236, 1034703532, 179.5923614501953, 1.999071717262268, 112.62643432617188, -0.35537129640579224, 0.07309767603874207, -10.007644653320312, -0.046730369329452515, -0.27554142475128174, -0.457071453332901, 
237, 1034720199, 179.59117126464844, 1.9993020296096802, 112.619140625, -0.3580498695373535, 0.08038241416215897, -9.997462272644043, -0.16700761020183563, -0.2922152876853943, -0.46004247665405273, 
238, 1034736866, 179.58444213867188, 1.9971648454666138, 112.62357330322266, -0.358739972114563, 0.07442469894886017, -9.999302864074707, -0.11063405126333237, -0.2390817105770111, -0.3923736810684204, 
239, 1034753533, 179.5851593017578, 1.9986625909805298, 112.62422180175781, -0.3592049479484558, 0.06738698482513428, -9.999321937561035, -0.052147459238767624, -0.3689253032207489, -0.49420982599258423, 
240, 1034770200, 179.5850067138672, 1.997684359550476, 112.62187194824219, -0.34619465470314026, 0.08353690803050995, -10.001296043395996, -0.10079877078533173, -0.21988502144813538, -0.44404736161231995, 
241, 1034786867, 179.58578491210938, 1.9970937967300415, 112.63307189941406, -0.3518737554550171, 0.06624923646450043, -10.006778717041016, -0.04852326214313507, -0.24344873428344727, -0.5020345449447632, 
242, 1034803534, 179.5872344970703, 1.9965957403182983, 112.63654327392578, -0.35524609684944153, 0.0689380019903183, -9.997527122497559, -0.0038162919227033854, -0.24964696168899536, -0.3860858082771301, 
243, 1034820201, 179.58782958984375, 1.995630145072937, 112.62652587890625, -0.34701013565063477, 0.07741773873567581, -9.993045806884766, -0.05969039723277092, -0.2206278145313263, -0.514136552810669, 
244, 1034836868, 179.58714294433594, 1.9961928129196167, 112.6175765991211, -0.35212767124176025, 0.07192467898130417, -9.99663257598877, -0.13695110380649567, -0.3120395243167877, -0.5218716263771057, 
245, 1034853535, 179.58636474609375, 1.9956068992614746, 112.61229705810547, -0.35372623801231384, 0.06401410698890686, -9.998467445373535, -0.1422785371541977, -0.24324382841587067, -0.5306054353713989, 
246, 1034870202, 179.5851593017578, 1.9951488971710205, 112.6142807006836, -0.34517553448677063, 0.0637315884232521, -9.994054794311523, -0.16608554124832153, -0.25127336382865906, -0.46483203768730164, 
247, 1034886869, 179.58551025390625, 1.994996428489685, 112.60099792480469, -0.3423682153224945, 0.07428497821092606, -9.983047485351562, -0.07218939065933228, -0.27021393179893494, -0.45353683829307556, 
248, 1034903536, 179.5841522216797, 1.994340181350708, 112.59952545166016, -0.346280574798584, 0.06904583424329758, -10.010458946228027, -0.17530614137649536, -0.23912017047405243, -0.46548524498939514, 
249, 1034920203, 179.58493041992188, 1.993760585784912, 112.60001373291016, -0.3412667214870453, 0.0678156167268753, -10.0023193359375, -0.047293853014707565, -0.24435797333717346, -0.4602602422237396, 
250, 1034936870, 179.58432006835938, 1.9944963455200195, 112.60095977783203, -0.34508612751960754, 0.07878384739160538, -10.001238822937012, -0.13058634102344513, -0.3227456212043762, -0.4801740050315857, 
251, 1034953537, 179.58287048339844, 1.9942878484725952, 112.60073852539062, -0.35333284735679626, 0.07885537296533585, -10.000141143798828, -0.18178611993789673, -0.26616719365119934, -0.5015990734100342, 
252, 1034970204, 179.58360290527344, 1.9938644170761108, 112.60169982910156, -0.3521955907344818, 0.07393841445446014, -10.004765510559082, -0.04954776540398598, -0.25341203808784485, -0.45617493987083435, 
253, 1034986871, 179.5829315185547, 1.9944002628326416, 112.5989990234375, -0.34517553448677063, 0.06600248068571091, -9.996707916259766, -0.1330195516347885, -0.311386376619339, -0.4596198797225952, 
254, 1035003538, 179.5828094482422, 1.9941738843917847, 112.58309173583984, -0.34521129727363586, 0.08209183812141418, -10.016738891601562, -0.1020922064781189, -0.2656933069229126, -0.4835421144962311, 
255, 1035020205, 179.58273315429688, 1.9931491613388062, 112.57697296142578, -0.34441378712654114, 0.06949286162853241, -10.005838394165039, -0.09793014824390411, -0.21728530526161194, -0.4744112193584442, 
256, 1035036872, 179.5840606689453, 1.9930139780044556, 112.57905578613281, -0.34426358342170715, 0.07613745331764221, -10.00120735168457, -0.013882082886993885, -0.27085426449775696, -0.44516149163246155, 
257, 1035053539, 179.58450317382812, 1.992435336112976, 112.56783294677734, -0.34699583053588867, 0.08062559366226196, -9.998363494873047, -0.06806574761867523, -0.2437816709280014, -0.4862954914569855, 
258, 1035070206, 179.58473205566406, 1.9914970397949219, 112.5711669921875, -0.35054704546928406, 0.06894183158874512, -10.022163391113281, -0.078733429312706, -0.2227792590856552, -0.45086032152175903, 
259, 1035086873, 179.5850830078125, 1.9918277263641357, 112.5647201538086, -0.3410234749317169, 0.07758622616529465, -10.003069877624512, -0.07357247918844223, -0.29881054162979126, -0.47904711961746216, 
260, 1035103540, 179.58502197265625, 1.9915448427200317, 112.56476593017578, -0.34448879957199097, 0.08031480014324188, -9.99106502532959, -0.09702090173959732, -0.26240211725234985, -0.46310320496559143, 
261, 1035120207, 179.58444213867188, 1.9918144941329956, 112.55342864990234, -0.34253257513046265, 0.06889595836400986, -10.011312484741211, -0.12614254653453827, -0.295916348695755, -0.40634551644325256, 
262, 1035136874, 179.5843505859375, 1.9921574592590332, 112.55210876464844, -0.3375439941883087, 0.08319288492202759, -10.014063835144043, -0.10084999352693558, -0.2992331385612488, -0.499255508184433, 
263, 1035153541, 179.58413696289062, 1.9926810264587402, 112.55154418945312, -0.35314688086509705, 0.06452550739049911, -10.005599021911621, -0.10402598232030869, -0.3110150098800659, -0.4336870610713959, 
264, 1035170208, 179.58335876464844, 1.9914097785949707, 112.54972839355469, -0.3571379482746124, 0.07564393430948257, -10.002676963806152, -0.14158698916435242, -0.20251962542533875, -0.46649685502052307, 
265, 1035186875, 179.58399963378906, 1.9924299716949463, 112.53662872314453, -0.3419569432735443, 0.07830820977687836, -9.98924446105957, -0.0581408254802227, -0.3392274081707001, -0.5605466961860657, 
266, 1035203542, 179.5840606689453, 1.9919081926345825, 112.5210189819336, -0.33393561840057373, 0.07246081531047821, -10.005935668945312, -0.08788998425006866, -0.24843037128448486, -0.4295505881309509, 
267, 1035220209, 179.58486938476562, 1.9924144744873047, 112.52356719970703, -0.35327205061912537, 0.06454696506261826, -9.989984512329102, -0.04761400818824768, -0.3088635504245758, -0.5203731656074524, 
268, 1035236876, 179.5845184326172, 1.9936503171920776, 112.51996612548828, -0.3384164869785309, 0.07630553841590881, -10.00395679473877, -0.11629445850849152, -0.3536217212677002, -0.5033919811248779, 
269, 1035253543, 179.58493041992188, 1.9928300380706787, 112.50838470458984, -0.3520311713218689, 0.07695609331130981, -9.991729736328125, -0.06809135526418686, -0.2299123853445053, -0.46166887879371643, 
270, 1035270210, 179.58453369140625, 1.9931381940841675, 112.50729370117188, -0.3455902338027954, 0.07020489126443863, -10.01297664642334, -0.11579500138759613, -0.29809337854385376, -0.44007739424705505, 
271, 1035286877, 179.58505249023438, 1.9932150840759277, 112.50909423828125, -0.3426221013069153, 0.08142666518688202, -9.986393928527832, -0.060817353427410126, -0.2840704321861267, -0.4127614498138428, 
272, 1035303544, 179.5840301513672, 1.991217851638794, 112.50453186035156, -0.34861940145492554, 0.08428405225276947, -10.00821304321289, -0.15569958090782166, -0.159310981631279, -0.479303240776062, 
273, 1035320211, 179.58433532714844, 1.9926635026931763, 112.50007629394531, -0.35919424891471863, 0.07044055312871933, -9.991576194763184, -0.07463540881872177, -0.3661079406738281, -0.4662151634693146, 
274, 1035336878, 179.5840606689453, 1.9901483058929443, 112.50176239013672, -0.34808287024497986, 0.05921144410967827, -9.998306274414062, -0.11132559180259705, -0.12812751531600952, -0.4911362826824188, 
275, 1035353545, 179.58328247070312, 1.9919395446777344, 112.49520874023438, -0.34324079751968384, 0.07728184014558792, -10.022088050842285, -0.14062651991844177, -0.38621383905410767, -0.46390998363494873, 
276, 1035370212, 179.58489990234375, 1.9927312135696411, 112.49950408935547, -0.3365783393383026, 0.06839854270219803, -9.975586891174316, 0.0021450635977089405, -0.3268180191516876, -0.4997293949127197, 
277, 1035386879, 179.58335876464844, 1.991216778755188, 112.49586486816406, -0.3521634340286255, 0.07443875819444656, -10.004486083984375, -0.1838991791009903, -0.18882961571216583, -0.41018739342689514, 
278, 1035403546, 179.58279418945312, 1.9910321235656738, 112.49811553955078, -0.34268301725387573, 0.06990019977092743, -10.014800071716309, -0.1271926611661911, -0.2679344415664673, -0.4570586085319519, 
279, 1035420213, 179.58128356933594, 1.9918137788772583, 112.4942855834961, -0.3378729224205017, 0.07672394812107086, -9.999282836914062, -0.18001887202262878, -0.32665157318115234, -0.3705901503562927, 
280, 1035436880, 179.58270263671875, 1.9920099973678589, 112.49800109863281, -0.3542841076850891, 0.06483350694179535, -10.01455020904541, -0.010475593619048595, -0.2908065617084503, -0.5396339297294617, 
281, 1035453547, 179.58192443847656, 1.992201805114746, 112.50047302246094, -0.3400220572948456, 0.07335199415683746, -9.980003356933594, -0.1418815404176712, -0.29024308919906616, -0.48894640803337097, 
282, 1035470214, 179.58212280273438, 1.991545557975769, 112.50113677978516, -0.35728099942207336, 0.0513722188770771, -10.01364517211914, -0.08085928112268448, -0.24004216492176056, -0.44518712162971497, 
283, 1035486881, 179.5811767578125, 1.9929550886154175, 112.49877166748047, -0.35498863458633423, 0.07270071655511856, -10.007118225097656, -0.1508587896823883, -0.36427658796310425, -0.4661768078804016, 
284, 1035503548, 179.58016967773438, 1.9926624298095703, 112.49732971191406, -0.3371685743331909, 0.06819073855876923, -9.99107551574707, -0.15491840243339539, -0.2617361545562744, -0.5034432411193848, 
285, 1035520215, 179.58047485351562, 1.9925132989883423, 112.51031494140625, -0.3459658622741699, 0.07847271859645844, -10.004518508911133, -0.07645390182733536, -0.2701883316040039, -0.46831533312797546, 
286, 1035536882, 179.5800018310547, 1.991909384727478, 112.51100158691406, -0.351036936044693, 0.07294747978448868, -10.00076675415039, -0.12335074692964554, -0.2422577142715454, -0.5061709880828857, 
287, 1035553549, 179.58074951171875, 1.9916588068008423, 112.51150512695312, -0.33367085456848145, 0.05745534598827362, -9.998542785644531, -0.048843421041965485, -0.26466885209083557, -0.48090407252311707, 
288, 1035570216, 179.58087158203125, 1.9933627843856812, 112.51177978515625, -0.354645311832428, 0.07065512984991074, -10.017170906066895, -0.08714719861745834, -0.3811681568622589, -0.44730016589164734, 
289, 1035586883, 179.58053588867188, 1.9930293560028076, 112.50944519042969, -0.3410736322402954, 0.07594076544046402, -10.00736141204834, -0.11177381128072739, -0.2594694495201111, -0.45475339889526367, 
290, 1035603550, 179.57969665527344, 1.9940861463546753, 112.51431274414062, -0.33377814292907715, 0.07931312173604965, -10.010254859924316, -0.14451967179775238, -0.3429155945777893, -0.4522434175014496, 
291, 1035620217, 179.57888793945312, 1.9942771196365356, 112.51675415039062, -0.3483905494213104, 0.07730329781770706, -10.008076667785645, -0.14029355347156525, -0.291293203830719, -0.4241847097873688, 
292, 1035636884, 179.57850646972656, 1.9938846826553345, 112.51873016357422, -0.34993886947631836, 0.07575158774852753, -10.001628875732422, -0.1181129589676857, -0.2553073763847351, -0.49810296297073364, 
293, 1035653551, 179.5775604248047, 1.9951947927474976, 112.51896667480469, -0.3460874557495117, 0.07441014796495438, -10.003560066223145, -0.14975745975971222, -0.35866743326187134, -0.4374905228614807, 
294, 1035670218, 179.57777404785156, 1.9956773519515991, 112.51625061035156, -0.3411594331264496, 0.08602923899888992, -10.00265884399414, -0.07915603369474411, -0.3089659512042999, -0.41518184542655945, 
295, 1035686885, 179.5771026611328, 1.995185136795044, 112.5171127319336, -0.35241377353668213, 0.07022598385810852, -10.002501487731934, -0.13451789319515228, -0.24912191927433014, -0.4864107668399811, 
296, 1035703552, 179.5758056640625, 1.9944477081298828, 112.51514434814453, -0.34161362051963806, 0.07747852802276611, -10.006360054016113, -0.1701195389032364, -0.23616187274456024, -0.4260544180870056, 
297, 1035720219, 179.5772247314453, 1.9949548244476318, 112.5171127319336, -0.36316028237342834, 0.07431001216173172, -10.003106117248535, -0.008529028855264187, -0.3097471594810486, -0.47505152225494385, 
298, 1035736886, 179.57823181152344, 1.995150089263916, 112.5155258178711, -0.3513730466365814, 0.07664565742015839, -10.00428295135498, -0.03428259864449501, -0.2906017005443573, -0.472221314907074, 
299, 1035753553, 179.57762145996094, 1.9949524402618408, 112.51671600341797, -0.34151691198349, 0.08535727113485336, -10.001700401306152, -0.13070160150527954, -0.267153263092041, -0.4725927412509918, 
300, 1035770220, 179.57797241210938, 1.9945149421691895, 112.5175552368164, -0.3456224799156189, 0.07549765706062317, -10.004414558410645, -0.07290654629468918, -0.25364255905151367, -0.4830682873725891, 
301, 1035786887, 179.580078125, 1.9940756559371948, 112.51297760009766, -0.33810895681381226, 0.07689560949802399, -10.001836776733398, 0.035684894770383835, -0.2534504532814026, -0.38682860136032104, 
302, 1035803554, 179.57948303222656, 1.993932843208313, 112.51476287841797, -0.3568160831928253, 0.06867390871047974, -10.000516891479492, -0.12899835407733917, -0.2704060673713684, -0.47260549664497375, 
303, 1035820221, 179.57913208007812, 1.9943435192108154, 112.51345825195312, -0.3550817370414734, 0.07911243289709091, -9.992219924926758, -0.11626885831356049, -0.3044966161251068, -0.4942226707935333, 
304, 1035836888, 179.57781982421875, 1.9942752122879028, 112.51277923583984, -0.35043612122535706, 0.07599082589149475, -9.996017456054688, -0.17366689443588257, -0.2744528651237488, -0.5114343762397766, 
305, 1035853555, 179.57827758789062, 1.993042230606079, 112.51273345947266, -0.33896008133888245, 0.07805072516202927, -10.015515327453613, -0.0652739629149437, -0.20524737238883972, -0.44852957129478455, 
306, 1035870222, 179.57835388183594, 1.9934287071228027, 112.51498413085938, -0.3490270972251892, 0.06765469163656235, -10.008012771606445, -0.090067058801651, -0.3023067116737366, -0.49537521600723267, 
307, 1035886889, 179.5777587890625, 1.9933273792266846, 112.51290893554688, -0.34497180581092834, 0.055302102118730545, -10.01461410522461, -0.12888310849666595, -0.27371013164520264, -0.46933993697166443, 
308, 1035903556, 179.57754516601562, 1.9927830696105957, 112.51459503173828, -0.3446212112903595, 0.08209541440010071, -9.997004508972168, -0.10644637048244476, -0.2470216602087021, -0.4662407636642456, 
309, 1035920223, 179.57586669921875, 1.9946742057800293, 112.51419067382812, -0.3515411913394928, 0.0738951712846756, -10.0023832321167, -0.19515594840049744, -0.3923737406730652, -0.4616560637950897, 
310, 1035936890, 179.57498168945312, 1.9952099323272705, 112.51332092285156, -0.354280561208725, 0.07516830414533615, -9.991297721862793, -0.1494244784116745, -0.3107588589191437, -0.5323728322982788, 
311, 1035953557, 179.57516479492188, 1.9936071634292603, 112.50484466552734, -0.35070425271987915, 0.07937774062156677, -9.988604545593262, -0.08152522146701813, -0.18337410688400269, -0.46137431263923645, 
312, 1035970224, 179.57553100585938, 1.9934325218200684, 112.49829864501953, -0.33825555443763733, 0.07283303886651993, -9.99354362487793, -0.0734444186091423, -0.2691894769668579, -0.4847971796989441, 
313, 1035986891, 179.5764617919922, 1.993085503578186, 112.49948120117188, -0.3435268998146057, 0.07851563394069672, -10.016252517700195, -0.03838062658905983, -0.25861141085624695, -0.4827353060245514, 
314, 1036003558, 179.5757598876953, 1.994626760482788, 112.50234985351562, -0.3580284118652344, 0.06413927674293518, -10.00408935546875, -0.1357601135969162, -0.3714609742164612, -0.46394839882850647, 
315, 1036020225, 179.57627868652344, 1.9955817461013794, 112.50220489501953, -0.34284740686416626, 0.07066943496465683, -10.002583503723145, -0.06181624159216881, -0.337101548910141, -0.45983758568763733, 
316, 1036036892, 179.5762481689453, 1.9951503276824951, 112.5029067993164, -0.35492783784866333, 0.07306548953056335, -10.002240180969238, -0.09686723351478577, -0.2532583475112915, -0.49424824118614197, 
317, 1036053559, 179.57449340820312, 1.9952869415283203, 112.50010681152344, -0.3482010066509247, 0.07266495376825333, -9.997838020324707, -0.19771721959114075, -0.28770744800567627, -0.42505553364753723, 
318, 1036070226, 179.5742950439453, 1.9955819845199585, 112.49713134765625, -0.34839412569999695, 0.07692421972751617, -10.001453399658203, -0.10560115426778793, -0.29695358872413635, -0.4820437431335449, 
319, 1036086893, 179.57333374023438, 1.9948821067810059, 112.50196838378906, -0.34083402156829834, 0.06541598588228226, -9.978841781616211, -0.15333043038845062, -0.2371479868888855, -0.5213337540626526, 
320, 1036103560, 179.57473754882812, 1.99466073513031, 112.49137878417969, -0.34450677037239075, 0.07782541960477829, -10.00244426727295, -0.010155434720218182, -0.2654115855693817, -0.46676579117774963, 
321, 1036120227, 179.57525634765625, 1.993964433670044, 112.48607635498047, -0.3376869857311249, 0.0726252943277359, -10.000835418701172, -0.062430959194898605, -0.23787793517112732, -0.46761104464530945, 
322, 1036136894, 179.57403564453125, 1.9946672916412354, 112.48189544677734, -0.3497280478477478, 0.07419557124376297, -10.01148509979248, -0.1673661768436432, -0.3212728798389435, -0.48053261637687683, 
323, 1036153561, 179.5734405517578, 1.9947314262390137, 112.48342895507812, -0.35436996817588806, 0.08080082386732101, -10.002137184143066, -0.12931852042675018, -0.2836606800556183, -0.4554578959941864, 
324, 1036170228, 179.57357788085938, 1.9943329095840454, 112.48967742919922, -0.3501500189304352, 0.052892107516527176, -9.996987342834473, -0.08727527409791946, -0.2553970217704773, -0.5140853524208069, 
325, 1036186895, 179.57452392578125, 1.9934438467025757, 112.49616241455078, -0.3416529595851898, 0.06913166493177414, -10.0016508102417, -0.03371911868453026, -0.22610890865325928, -0.3843057155609131, 
326, 1036203562, 179.5732421875, 1.9939041137695312, 112.50341796875, -0.3581323027610779, 0.07669135928153992, -9.997480392456055, -0.1705293506383896, -0.30755728483200073, -0.4509115517139435, 
327, 1036220229, 179.57403564453125, 1.9938385486602783, 112.49768829345703, -0.3445890247821808, 0.07425279170274734, -10.010676383972168, -0.045987606048583984, -0.2752084732055664, -0.4638972282409668, 
328, 1036236896, 179.57342529296875, 1.9929879903793335, 112.49702453613281, -0.35450229048728943, 0.0913756713271141, -10.013920783996582, -0.129549041390419, -0.22879824042320251, -0.4428948163986206, 
329, 1036253563, 179.57496643066406, 1.9936188459396362, 112.49617767333984, -0.3469243049621582, 0.07911285758018494, -10.00048828125, -5.250603426247835E-4, -0.3169059157371521, -0.4450206756591797, 
330, 1036270230, 179.57510375976562, 1.9938592910766602, 112.4931640625, -0.3460123538970947, 0.080951027572155, -9.996829986572266, -0.08298514783382416, -0.2944563925266266, -0.381501168012619, 
331, 1036286897, 179.57435607910156, 1.9930754899978638, 112.49819946289062, -0.3594910800457001, 0.08264973014593124, -10.020246505737305, -0.13787318766117096, -0.23221755027770996, -0.45672568678855896, 
332, 1036303564, 179.5740966796875, 1.9931471347808838, 112.48983764648438, -0.35942670702934265, 0.0800677016377449, -9.997373580932617, -0.10925096273422241, -0.28390395641326904, -0.48851099610328674, 
333, 1036320231, 179.57437133789062, 1.99347722530365, 112.4875259399414, -0.35105839371681213, 0.0744137242436409, -10.005881309509277, -0.07600568234920502, -0.2990538477897644, -0.41934388875961304, 
334, 1036336898, 179.573974609375, 1.993007779121399, 112.48627471923828, -0.3467240333557129, 0.06377808004617691, -10.000595092773438, -0.11772876977920532, -0.2514526844024658, -0.45381858944892883, 
335, 1036353565, 179.5748748779297, 1.9934953451156616, 112.48754119873047, -0.3453364372253418, 0.08062592893838882, -9.995898246765137, -0.03699754551053047, -0.30890196561813354, -0.4010820686817169, 
336, 1036370232, 179.57376098632812, 1.9943631887435913, 112.48307037353516, -0.359945148229599, 0.07374531030654907, -10.00562572479248, -0.15736442804336548, -0.33228635787963867, -0.37001386284828186, 
337, 1036386899, 179.57456970214844, 1.9949305057525635, 112.48295593261719, -0.3523315191268921, 0.06992200762033463, -10.0003662109375, -0.04409226030111313, -0.3129359483718872, -0.44691598415374756, 
338, 1036403566, 179.57420349121094, 1.9951138496398926, 112.48273468017578, -0.34739646315574646, 0.08219163864850998, -10.000389099121094, -0.114642433822155, -0.29094743728637695, -0.41303038597106934, 
339, 1036420233, 179.57464599609375, 1.9953409433364868, 112.48057556152344, -0.35305753350257874, 0.08685139566659927, -10.001103401184082, -0.06583744287490845, -0.2929452359676361, -0.4456993639469147, 
340, 1036436900, 179.5745849609375, 1.9952173233032227, 112.47467803955078, -0.35251739621162415, 0.06976144760847092, -10.012249946594238, -0.09795577079057693, -0.2714049518108368, -0.4787781834602356, 
341, 1036453567, 179.57542419433594, 1.9948052167892456, 112.47393035888672, -0.34406334161758423, 0.0685841292142868, -10.011581420898438, -0.044681355357170105, -0.25442373752593994, -0.5097567439079285, 
342, 1036470234, 179.5763397216797, 1.9953895807266235, 112.47518920898438, -0.3480972945690155, 0.0867266058921814, -10.000312805175781, -0.03879042714834213, -0.31429341435432434, -0.4814418852329254, 
343, 1036486901, 179.5750274658203, 1.9946794509887695, 112.47681427001953, -0.3637755811214447, 0.06419259309768677, -10.008301734924316, -0.17342357337474823, -0.23626433312892914, -0.4800203740596771, 
344, 1036503568, 179.5743865966797, 1.9946154356002808, 112.4710464477539, -0.3371933102607727, 0.07228264957666397, -10.0034818649292, -0.1309577226638794, -0.2756182551383972, -0.4422544538974762, 
345, 1036520235, 179.57455444335938, 1.9938536882400513, 112.46928405761719, -0.35990235209465027, 0.06256574392318726, -10.0166597366333, -0.08371511101722717, -0.233472540974617, -0.4517439603805542, 
346, 1036536902, 179.57533264160156, 1.9924522638320923, 112.46520233154297, -0.3551495671272278, 0.07204269617795944, -10.00296688079834, -0.04606443643569946, -0.19569382071495056, -0.452909380197525, 
347, 1036553569, 179.57545471191406, 1.9922374486923218, 112.46542358398438, -0.3562867045402527, 0.07861253619194031, -10.012032508850098, -0.08631480485200882, -0.2663080394268036, -0.45842885971069336, 
348, 1036570236, 179.575439453125, 1.992222785949707, 112.4638671875, -0.3475251793861389, 0.07822202891111374, -9.999458312988281, -0.09317900985479355, -0.27802589535713196, -0.4411531686782837, 
349, 1036586903, 179.57635498046875, 1.9924099445343018, 112.46354675292969, -0.35009995102882385, 0.0720355436205864, -10.00767993927002, -0.037919603288173676, -0.29066574573516846, -0.44037196040153503, 
350, 1036603570, 179.57630920410156, 1.9921423196792603, 112.46471405029297, -0.3416888415813446, 0.06979646533727646, -10.00793743133545, -0.09764841943979263, -0.26309362053871155, -0.5000495314598083, 
351, 1036620237, 179.57598876953125, 1.9914313554763794, 112.4567642211914, -0.3505505621433258, 0.07499664276838303, -9.993889808654785, -0.11172259598970413, -0.23682785034179688, -0.4079079031944275, 
352, 1036636904, 179.57579040527344, 1.9919705390930176, 112.45023345947266, -0.3442707359790802, 0.06549466401338577, -9.990492820739746, -0.10473032295703888, -0.3110790550708771, -0.4444315433502197, 
353, 1036653571, 179.57640075683594, 1.9919073581695557, 112.45330047607422, -0.3493918776512146, 0.0804932713508606, -10.016763687133789, -0.05784628167748451, -0.2753109037876129, -0.48840853571891785, 
354, 1036670238, 179.57464599609375, 1.9930099248886108, 112.45448303222656, -0.34151706099510193, 0.06702527403831482, -9.992384910583496, -0.19861367344856262, -0.3451695442199707, -0.4735915958881378, 
355, 1036686905, 179.57467651367188, 1.9935401678085327, 112.45459747314453, -0.35096898674964905, 0.08196666836738586, -10.006617546081543, -0.09171907603740692, -0.31155285239219666, -0.45284533500671387, 
356, 1036703572, 179.57366943359375, 1.9929226636886597, 112.45728302001953, -0.34664878249168396, 0.07499337196350098, -9.995814323425293, -0.15389391779899597, -0.24178387224674225, -0.4401158094406128, 
357, 1036720239, 179.57337951660156, 1.9933946132659912, 112.46145629882812, -0.339861124753952, 0.0702836662530899, -9.998800277709961, -0.11357951164245605, -0.30672487616539, -0.5394162535667419, 
358, 1036736906, 179.58407592773438, 1.9972420930862427, 112.46099853515625, -0.3525747060775757, 0.08470246940851212, -10.002869606018066, -0.08101297169923782, -0.30155113339424133, -0.4340968728065491, 
359, 1036753573, 179.58251953125, 1.9969102144241333, 112.46337890625, -0.33481526374816895, 0.07216428965330124, -10.013580322265625, -0.18913698196411133, -0.25809919834136963, -0.46672743558883667, 
360, 1036770240, 179.58250427246094, 1.998302936553955, 112.46334838867188, -0.3474750220775604, 0.06455769389867783, -9.994956016540527, -0.09627813845872879, -0.3624837100505829, -0.4579678773880005, 
361, 1036786907, 179.58094787597656, 1.9985814094543457, 112.46101379394531, -0.3503826856613159, 0.0656123012304306, -9.993940353393555, -0.18772827088832855, -0.29596754908561707, -0.433315634727478, 
362, 1036803574, 179.58126831054688, 1.998331904411316, 112.45934295654297, -0.33377814292907715, 0.0807686448097229, -9.99886417388916, -0.07407191395759583, -0.26382356882095337, -0.40039050579071045, 
363, 1036820241, 179.58279418945312, 1.9984790086746216, 112.4595718383789, -0.35310038924217224, 0.08102612942457199, -10.005609512329102, -0.0028814286924898624, -0.2872336208820343, -0.4499639570713043, 
364, 1036836908, 179.58206176757812, 1.9976950883865356, 112.45309448242188, -0.3430476784706116, 0.07525412738323212, -10.018787384033203, -0.1403575986623764, -0.23130831122398376, -0.5033791661262512, 
365, 1036853575, 179.5823211669922, 1.9959228038787842, 112.44986724853516, -0.34580135345458984, 0.08155898004770279, -9.985668182373047, -0.080987349152565, -0.17250151932239532, -0.49412018060684204, 
366, 1036870242, 179.58152770996094, 1.9970685243606567, 112.44404602050781, -0.35505643486976624, 0.07486830651760101, -9.982698440551758, -0.14276517927646637, -0.34743624925613403, -0.42029157280921936, 
367, 1036886909, 179.58349609375, 1.9972113370895386, 112.44475555419922, -0.36151522397994995, 0.08158043771982193, -10.00075626373291, 0.02258399687707424, -0.2874128818511963, -0.4478764235973358, 
368, 1036903576, 179.58358764648438, 1.9975330829620361, 112.4439926147461, -0.3561079800128937, 0.07339807599782944, -9.989087104797363, -0.09056650847196579, -0.2972610294818878, -0.5184010863304138, 
369, 1036920243, 179.5845947265625, 1.9998376369476318, 112.44027709960938, -0.35074010491371155, 0.07758224010467529, -9.988289833068848, -0.034705210477113724, -0.41680824756622314, -0.4378618896007538, 
370, 1036936910, 179.58575439453125, 2.0003275871276855, 112.43592834472656, -0.3451218903064728, 0.07545439898967743, -10.008627891540527, -0.02435767650604248, -0.30828726291656494, -0.4407432973384857, 
371, 1036953577, 179.58518981933594, 2.000070810317993, 112.43611145019531, -0.3422716557979584, 0.07743919640779495, -10.002280235290527, -0.12998445332050323, -0.2632729411125183, -0.464332640171051, 
372, 1036970244, 179.58609008789062, 1.9992341995239258, 112.43616485595703, -0.33838072419166565, 0.09809894114732742, -9.9957857131958, -0.04218411445617676, -0.22802987694740295, -0.5097439885139465, 
373, 1036986911, 179.58555603027344, 1.9990049600601196, 112.4435043334961, -0.3529144525527954, 0.08402299135923386, -10.022953987121582, -0.12673163414001465, -0.2651042640209198, -0.41518184542655945, 
374, 1037003578, 179.58612060546875, 2.0000030994415283, 112.45146179199219, -0.3388599455356598, 0.08019287139177322, -9.994104385375977, -0.05929340049624443, -0.3388047516345978, -0.41824254393577576, 
375, 1037020245, 179.58575439453125, 1.9985435009002686, 112.45062255859375, -0.345082551240921, 0.06736858934164047, -10.006860733032227, -0.11570536345243454, -0.19177506864070892, -0.4305494725704193, 
376, 1037036912, 179.5867156982422, 1.9989583492279053, 112.44901275634766, -0.35131946206092834, 0.06834132224321365, -10.011238098144531, -0.03898252546787262, -0.3035360872745514, -0.47905993461608887, 
377, 1037053579, 179.58633422851562, 1.9984527826309204, 112.458251953125, -0.34832626581192017, 0.06402094662189484, -10.011366844177246, -0.11775438487529755, -0.24832791090011597, -0.44473889470100403, 
378, 1037070246, 179.5848388671875, 1.999333381652832, 112.45926666259766, -0.35127273201942444, 0.0778401792049408, -10.00106430053711, -0.1850389689207077, -0.33104416728019714, -0.4777665138244629, 
