sep=,
DeviceTag:,Foot_01,,,,,,,,,,,,,,,,,
FirmwareVersion:,1.9.1,,,,,,,,,,,,,,,,,
AppVersion:,2022.0.1,,,,,,,,,,,,,,,,,
StartTime:,2023-02-16 10:48:45.000 -0500,,,,,,,,,,,,,,,,,
© Xsens Technologies B. V. 2005-2023,,,,,,,,,,,,,,,,,,,

PacketCounter,SampleTimeFine,Euler_X,Euler_Y,Euler_Z,Acc_X,Acc_Y,Acc_Z,Gyr_X,Gyr_Y,Gyr_Z,
0, 2363359822, -1.2612615823745728, -0.10579659789800644, 93.31304168701172, 0.0, 0.0, 0.0, 0.0, 0.0, 0.0, 
1, 2363376489, -1.2412631511688232, -0.12062764167785645, 93.29154205322266, 0.019339818507432938, -0.19596946239471436, 9.806428909301758, -0.22085829079151154, -0.30869701504707336, -0.522511899471283, 
2, 2363393156, -1.2194968461990356, -0.12502451241016388, 93.28375244140625, 0.027247123420238495, -0.21855275332927704, 9.799809455871582, -0.16020742058753967, -0.25033852458000183, -0.537034273147583, 
3, 2363409823, -1.2182643413543701, -0.131891131401062, 93.29206848144531, 0.027733856812119484, -0.18814024329185486, 9.787742614746094, -0.29767081141471863, -0.34493905305862427, -0.4626677930355072, 
4, 2363426490, -1.2091647386550903, -0.1362283080816269, 93.28205108642578, 0.0246722549200058, -0.21010218560695648, 9.795764923095703, -0.16894134879112244, -0.25197771191596985, -0.46525466442108154, 
5, 2363443157, -1.2048600912094116, -0.13845515251159668, 93.29051208496094, 0.023277534171938896, -0.20723405480384827, 9.797842025756836, -0.1171012595295906, -0.22788897156715393, -0.5325648784637451, 
6, 2363459824, -1.2042821645736694, -0.13958963751792908, 93.31104278564453, 0.021965065971016884, -0.20384381711483002, 9.789810180664062, -0.21432705223560333, -0.24146370589733124, -0.4305110573768616, 
7, 2363476491, -1.2032444477081299, -0.14060410857200623, 93.31485748291016, 0.026367375627160072, -0.19576159119606018, 9.792492866516113, -0.16102702915668488, -0.2981446087360382, -0.531181812286377, 
8, 2363493158, -1.2005469799041748, -0.14083170890808105, 93.31102752685547, 0.026649896055459976, -0.2064151018857956, 9.791351318359375, -0.09712335467338562, -0.24455004930496216, -0.4883701205253601, 
9, 2363509825, -1.199460506439209, -0.14065149426460266, 93.3034439086914, 0.012552487663924694, -0.20456978678703308, 9.782428741455078, -0.1450447291135788, -0.21989785134792328, -0.4746801257133484, 
10, 2363526492, -1.1975964307785034, -0.14045152068138123, 93.29264068603516, 0.026059728115797043, -0.21117186546325684, 9.795049667358398, -0.07376456260681152, -0.29143404960632324, -0.49410736560821533, 
11, 2363543159, -1.198989987373352, -0.1393829584121704, 93.29066467285156, 0.022912759333848953, -0.19872626662254333, 9.78833293914795, -0.22576312720775604, -0.21884769201278687, -0.4552016854286194, 
12, 2363559826, -1.1997898817062378, -0.13898970186710358, 93.28346252441406, 0.02408575639128685, -0.19435256719589233, 9.779221534729004, -0.20743724703788757, -0.26393887400627136, -0.4393218159675598, 
13, 2363576493, -1.19892156124115, -0.13869117200374603, 93.28155517578125, 0.036416519433259964, -0.20587867498397827, 9.79089069366455, -0.13181577622890472, -0.26219722628593445, -0.5013429522514343, 
14, 2363593160, -1.198820948600769, -0.13934177160263062, 93.27955627441406, 0.026496119797229767, -0.2094656080007553, 9.790704727172852, -0.16219240427017212, -0.2799724042415619, -0.5958281755447388, 
15, 2363609827, -1.1990571022033691, -0.14156964421272278, 93.27369689941406, 0.013507334515452385, -0.190826416015625, 9.800528526306152, -0.16261504590511322, -0.38051512837409973, -0.4757175147533417, 
16, 2363626494, -1.1979055404663086, -0.14311134815216064, 93.28516387939453, 0.03582644462585449, -0.21640345454216003, 9.804651260375977, -0.10375705361366272, -0.3585266172885895, -0.533512532711029, 
17, 2363643161, -1.1988238096237183, -0.14379596710205078, 93.27632141113281, 0.020359348505735397, -0.19147728383541107, 9.78912353515625, -0.19976626336574554, -0.29290685057640076, -0.502534031867981, 
18, 2363659828, -1.199639916419983, -0.14248472452163696, 93.27896118164062, 0.026657048612833023, -0.20605748891830444, 9.787403106689453, -0.21118950843811035, -0.17923766374588013, -0.5652850866317749, 
19, 2363676495, -1.200217604637146, -0.14210057258605957, 93.25863647460938, 0.022555138915777206, -0.20243479311466217, 9.807154655456543, -0.18803562223911285, -0.23823651671409607, -0.53337162733078, 
20, 2363693162, -1.1977150440216064, -0.1426037847995758, 93.25253295898438, 0.027905145660042763, -0.20847858488559723, 9.797445297241211, -0.001959371380507946, -0.29462286829948425, -0.5142261385917664, 
21, 2363709829, -1.197927474975586, -0.1440552920103073, 93.24364471435547, 0.012337915599346161, -0.19325824081897736, 9.802799224853516, -0.15795350074768066, -0.34917792677879333, -0.5165441036224365, 
22, 2363726496, -1.1980353593826294, -0.14498355984687805, 93.26008605957031, 0.025065843015909195, -0.20425105094909668, 9.804362297058105, -0.16059161722660065, -0.32766324281692505, -0.48404157161712646, 
23, 2363743163, -1.1971174478530884, -0.14405512809753418, 93.2553482055664, 0.027965940535068512, -0.19758902490139008, 9.793357849121094, -0.09609884023666382, -0.21842509508132935, -0.5234211087226868, 
24, 2363759830, -1.1983755826950073, -0.14323532581329346, 93.26576232910156, 0.023695949465036392, -0.19224974513053894, 9.799394607543945, -0.22915682196617126, -0.2226768285036087, -0.441959947347641, 
25, 2363776497, -1.197445034980774, -0.14248089492321014, 93.26053619384766, 0.025627238675951958, -0.21023774147033691, 9.797903060913086, -0.10435894131660461, -0.22759445011615753, -0.49696317315101624, 
26, 2363793164, -1.1967052221298218, -0.14194044470787048, 93.25302124023438, 0.02640671469271183, -0.20579999685287476, 9.795256614685059, -0.10757333040237427, -0.23757055401802063, -0.5553473234176636, 
27, 2363809831, -1.1973156929016113, -0.14208556711673737, 93.24478912353516, 0.026163533329963684, -0.19884786009788513, 9.795514106750488, -0.1852182149887085, -0.27879419922828674, -0.5070033669471741, 
28, 2363826498, -1.1967440843582153, -0.14157326519489288, 93.242431640625, 0.04239935427904129, -0.2107355296611786, 9.807769775390625, -0.11529555916786194, -0.23780111968517303, -0.5213720798492432, 
29, 2363843165, -1.1975224018096924, -0.1418025642633438, 93.2405014038086, 0.030783992260694504, -0.22069132328033447, 9.774482727050781, -0.19059689342975616, -0.27177634835243225, -0.5066959261894226, 
30, 2363859832, -1.1980888843536377, -0.14277677237987518, 93.2363510131836, 0.020545311272144318, -0.19576159119606018, 9.796229362487793, -0.16718687117099762, -0.31428062915802, -0.5271861553192139, 
31, 2363876499, -1.1961621046066284, -0.14132140576839447, 93.23968505859375, 0.023738864809274673, -0.19527879357337952, 9.803410530090332, -0.020925577729940414, -0.17223261296749115, -0.47630661725997925, 
32, 2363893166, -1.1966103315353394, -0.140835702419281, 93.23645782470703, 0.016754530370235443, -0.20315003395080566, 9.788172721862793, -0.16704602539539337, -0.23334451019763947, -0.44779959321022034, 
33, 2363909833, -1.197331428527832, -0.14161831140518188, 93.23245239257812, 0.0244970191270113, -0.20951209962368011, 9.797553062438965, -0.1833997368812561, -0.31256455183029175, -0.4969375729560852, 
34, 2363926500, -1.1963963508605957, -0.14051580429077148, 93.2273941040039, 0.02809479646384716, -0.2001314014196396, 9.789327621459961, -0.08019335567951202, -0.2000223696231842, -0.5262641310691833, 
35, 2363943167, -1.1959714889526367, -0.1408194899559021, 93.22196197509766, 0.040600527077913284, -0.20141956210136414, 9.78559398651123, -0.11201713234186172, -0.2829307019710541, -0.5132016539573669, 
36, 2363959834, -1.1969423294067383, -0.14041048288345337, 93.2283935546875, 0.020194843411445618, -0.19269677996635437, 9.790264129638672, -0.19611643254756927, -0.23413848876953125, -0.5206805467605591, 
37, 2363976501, -1.1972335577011108, -0.14081579446792603, 93.22605895996094, 0.030519353225827217, -0.19871553778648376, 9.79761028289795, -0.1588115394115448, -0.2838399410247803, -0.5985687375068665, 
38, 2363993168, -1.1971383094787598, -0.14097268879413605, 93.22612762451172, 0.021056707948446274, -0.20039278268814087, 9.793790817260742, -0.135670468211174, -0.26801127195358276, -0.5679616332054138, 
39, 2364009835, -1.198095440864563, -0.14028379321098328, 93.23177337646484, 0.030319085344672203, -0.2002139687538147, 9.808738708496094, -0.19966378808021545, -0.21987220644950867, -0.5030590295791626, 
40, 2364026502, -1.198859691619873, -0.14071603119373322, 93.22743225097656, 0.029403334483504295, -0.18293412029743195, 9.795546531677246, -0.18834297358989716, -0.28778427839279175, -0.4766395390033722, 
41, 2364043169, -1.1988972425460815, -0.1396554857492447, 93.22798156738281, 0.03118095174431801, -0.19633735716342926, 9.796952247619629, -0.1496293693780899, -0.19738426804542542, -0.4668298363685608, 
42, 2364059836, -1.1974552869796753, -0.1393522322177887, 93.22563934326172, 0.021121080964803696, -0.20306062698364258, 9.804054260253906, -0.0616113543510437, -0.2400038093328476, -0.5177991390228271, 
43, 2364076503, -1.1980788707733154, -0.13969704508781433, 93.21965026855469, 0.023234618827700615, -0.21843115985393524, 9.795260429382324, -0.18529507517814636, -0.2809200882911682, -0.5342168211936951, 
44, 2364093170, -1.1973406076431274, -0.1384648233652115, 93.21749877929688, 0.016497043892741203, -0.21116788685321808, 9.807083129882812, -0.09826311469078064, -0.1872672587633133, -0.5237540602684021, 
45, 2364109837, -1.1962999105453491, -0.13795992732048035, 93.22239685058594, 0.031238170340657234, -0.20071463286876678, 9.79337215423584, -0.07784980535507202, -0.23313960433006287, -0.5006386637687683, 
46, 2364126504, -1.196197509765625, -0.13765011727809906, 93.21900939941406, 0.02440403774380684, -0.20181968808174133, 9.790267944335938, -0.13354460895061493, -0.24339744448661804, -0.5553601384162903, 
47, 2364143171, -1.1972973346710205, -0.13928771018981934, 93.21449279785156, 0.01989786885678768, -0.2038726657629013, 9.791550636291504, -0.206348717212677, -0.36043471097946167, -0.5371495485305786, 
48, 2364159838, -1.1970447301864624, -0.13898974657058716, 93.20246124267578, 0.031889040023088455, -0.19823989272117615, 9.78807258605957, -0.1239270493388176, -0.24686798453330994, -0.5039939284324646, 
49, 2364176505, -1.1974833011627197, -0.13882704079151154, 93.2202377319336, 0.028827806934714317, -0.19685590267181396, 9.802194595336914, -0.16589345037937164, -0.25379621982574463, -0.4539722502231598, 
50, 2364193172, -1.19942307472229, -0.13868556916713715, 93.22633361816406, 0.019847752526402473, -0.19444572925567627, 9.789262771606445, -0.2576253414154053, -0.25159355998039246, -0.5670907497406006, 
51, 2364209839, -1.1995543241500854, -0.1384975165128708, 93.24083709716797, 0.02236185036599636, -0.19145256280899048, 9.794716835021973, -0.1494244933128357, -0.2538602948188782, -0.43241918087005615, 
52, 2364226506, -1.2005107402801514, -0.1383623331785202, 93.24370574951172, 0.0289243645966053, -0.21504807472229004, 9.792689323425293, -0.2010340690612793, -0.2563575208187103, -0.4945811927318573, 
53, 2364243173, -1.2003988027572632, -0.13937586545944214, 93.24449157714844, 0.032515060156583786, -0.20404359698295593, 9.790003776550293, -0.1341336965560913, -0.3237572908401489, -0.5196816921234131, 
54, 2364259840, -1.1996433734893799, -0.13926397264003754, 93.2436294555664, 0.036963678896427155, -0.21727962791919708, 9.80038833618164, -0.09540729969739914, -0.2570618689060211, -0.4650241434574127, 
55, 2364276507, -1.1977840662002563, -0.13921667635440826, 93.2425537109375, 0.015016494318842888, -0.2024705559015274, 9.785161018371582, -0.026176176965236664, -0.2579711079597473, -0.5253292322158813, 
56, 2364293174, -1.1964670419692993, -0.13854287564754486, 93.23973083496094, 0.032729361206293106, -0.20744182169437408, 9.803878784179688, -0.05903726816177368, -0.2212424874305725, -0.5448076725006104, 
57, 2364309841, -1.1957060098648071, -0.13952282071113586, 93.23036193847656, 0.03211434185504913, -0.19549694657325745, 9.796955108642578, -0.0908866599202156, -0.32143938541412354, -0.48270970582962036, 
58, 2364326508, -1.1952086687088013, -0.14018090069293976, 93.22696685791016, 0.016740083694458008, -0.21441908180713654, 9.792242050170898, -0.10758615285158157, -0.3001936376094818, -0.49404338002204895, 
59, 2364343175, -1.1954381465911865, -0.14065973460674286, 93.22399139404297, 0.02626366727054119, -0.1994987279176712, 9.787357330322266, -0.15005198121070862, -0.29160061478614807, -0.4930444657802582, 
60, 2364359842, -1.1945998668670654, -0.14167293906211853, 93.2314224243164, 0.031127307564020157, -0.19609417021274567, 9.798150062561035, -0.08553360402584076, -0.323334664106369, -0.4961179494857788, 
61, 2364376509, -1.1948835849761963, -0.14198338985443115, 93.23257446289062, 0.01752341538667679, -0.20652596652507782, 9.795371055603027, -0.15434211492538452, -0.27963942289352417, -0.5387246608734131, 
62, 2364393176, -1.1944400072097778, -0.1409333050251007, 93.23030090332031, 0.01537398248910904, -0.19341586530208588, 9.793218612670898, -0.10925096273422241, -0.20157192647457123, -0.4487985074520111, 
63, 2364409843, -1.195963978767395, -0.14032845199108124, 93.22925567626953, 0.02144651487469673, -0.20422646403312683, 9.797073364257812, -0.2285933643579483, -0.2289903610944748, -0.47822755575180054, 
64, 2364426510, -1.1958065032958984, -0.14019328355789185, 93.22834014892578, 0.0306339543312788, -0.2012721598148346, 9.805648803710938, -0.12729512155056, -0.257343590259552, -0.48189017176628113, 
65, 2364443177, -1.1968770027160645, -0.14076265692710876, 93.2196273803711, 0.022913029417395592, -0.20697255432605743, 9.794240951538086, -0.20168718695640564, -0.2991434931755066, -0.5018423795700073, 
66, 2364459844, -1.1979140043258667, -0.14237140119075775, 93.21543884277344, 0.01071789301931858, -0.20571058988571167, 9.79626178741455, -0.19890819489955902, -0.36151042580604553, -0.4980388879776001, 
67, 2364476511, -1.1961058378219604, -0.14107221364974976, 93.21331024169922, 0.02900661714375019, -0.21771949529647827, 9.794523239135742, -0.027392780408263206, -0.1890089064836502, -0.5184650421142578, 
68, 2364493178, -1.1945213079452515, -0.14157640933990479, 93.2034912109375, 0.02559494599699974, -0.19181323051452637, 9.801998138427734, -0.039225850254297256, -0.2947893440723419, -0.5855447053909302, 
69, 2364509845, -1.1949424743652344, -0.14323359727859497, 93.20640563964844, 0.029131604358553886, -0.19584426283836365, 9.7933931350708, -0.16089896857738495, -0.3675806224346161, -0.4223661422729492, 
70, 2364526512, -1.1931549310684204, -0.14355279505252838, 93.19622802734375, 0.022190343588590622, -0.19834738969802856, 9.79398250579834, -0.02886551059782505, -0.283238023519516, -0.5939968824386597, 
71, 2364543179, -1.1942856311798096, -0.14298930764198303, 93.19387817382812, 0.02372455969452858, -0.20860017836093903, 9.79639720916748, -0.20467106997966766, -0.23211507499217987, -0.542540967464447, 
72, 2364559846, -1.194659948348999, -0.14342238008975983, 93.19256591796875, 0.015273981727659702, -0.21689696609973907, 9.796004295349121, -0.15815840661525726, -0.2927147150039673, -0.5125100612640381, 
73, 2364576513, -1.195001244544983, -0.14390051364898682, 93.18901824951172, 0.025408953428268433, -0.20232392847537994, 9.799323081970215, -0.15470069646835327, -0.29674872756004333, -0.45352402329444885, 
74, 2364593180, -1.1961863040924072, -0.14346542954444885, 93.1900863647461, 0.030268749222159386, -0.21620352566242218, 9.802288055419922, -0.20528578758239746, -0.2420400083065033, -0.49251940846443176, 
75, 2364609847, -1.1954940557479858, -0.14322629570960999, 93.19110870361328, 0.026728574186563492, -0.1993628293275833, 9.791158676147461, -0.09106593579053879, -0.2523491084575653, -0.5326288938522339, 
76, 2364626514, -1.194737195968628, -0.14213904738426208, 93.1895523071289, 0.018109913915395737, -0.21288089454174042, 9.78972053527832, -0.08826135843992233, -0.20076514780521393, -0.5582287311553955, 
77, 2364643181, -1.197996735572815, -0.14389638602733612, 93.1880874633789, 0.021460819989442825, -0.20368288457393646, 9.794341087341309, -0.3275480270385742, -0.3718707859516144, -0.5670779943466187, 
78, 2364659848, -1.1967008113861084, -0.1444501280784607, 93.18638610839844, 0.02267315424978733, -0.2055174857378006, 9.79428768157959, -0.054798368364572525, -0.300808310508728, -0.5332947969436646, 
79, 2364676515, -1.1984938383102417, -0.1453305184841156, 93.1873550415039, 0.017162218689918518, -0.20092563331127167, 9.79218864440918, -0.2394018918275833, -0.320875883102417, -0.49575942754745483, 
80, 2364693182, -1.1989296674728394, -0.14593325555324554, 93.1842041015625, 0.03241116553544998, -0.1938876509666443, 9.787525177001953, -0.15865786373615265, -0.3056747317314148, -0.5267379283905029, 
81, 2364709849, -1.2004860639572144, -0.14403480291366577, 93.17699432373047, 0.025402121245861053, -0.19815024733543396, 9.786223411560059, -0.2268388569355011, -0.15418843924999237, -0.5271861553192139, 
82, 2364726516, -1.2007031440734863, -0.14583545923233032, 93.17839813232422, 0.01019219122827053, -0.21037039160728455, 9.789942741394043, -0.14638938009738922, -0.3765450716018677, -0.4684050381183624, 
83, 2364743183, -1.2010533809661865, -0.14574773609638214, 93.17401123046875, 0.020978031679987907, -0.20238114893436432, 9.79855728149414, -0.15440614521503448, -0.2641693353652954, -0.5327953696250916, 
84, 2364759850, -1.1996064186096191, -0.14559614658355713, 93.17776489257812, 0.04191672429442406, -0.2005036324262619, 9.787739753723145, -0.046640727669000626, -0.26117268204689026, -0.5066832304000854, 
85, 2364776517, -1.1990495920181274, -0.14687632024288177, 93.17169952392578, 0.03876250982284546, -0.2001853585243225, 9.80921459197998, -0.09963340312242508, -0.345272034406662, -0.519131064414978, 
86, 2364793184, -1.1995314359664917, -0.14799554646015167, 93.17131042480469, 0.022236857563257217, -0.20365069806575775, 9.781163215637207, -0.1629864126443863, -0.3358721137046814, -0.46292391419410706, 
87, 2364809851, -1.1996132135391235, -0.14884087443351746, 93.17929077148438, 0.019293835386633873, -0.19113706052303314, 9.790121078491211, -0.13906414806842804, -0.31819936633110046, -0.5318732857704163, 
88, 2364826518, -1.1974002122879028, -0.14839386940002441, 93.17899322509766, 0.031145188957452774, -0.20468026399612427, 9.786988258361816, -0.0019081461941823363, -0.24090026319026947, -0.5443723201751709, 
89, 2364843185, -1.1972746849060059, -0.14866633713245392, 93.176025390625, 0.01823865808546543, -0.18673881888389587, 9.79965591430664, -0.12788420915603638, -0.28391677141189575, -0.5210647583007812, 
90, 2364859852, -1.1956692934036255, -0.14828196167945862, 93.1768569946289, 0.01966913975775242, -0.1894567310810089, 9.791265487670898, -0.03964845836162567, -0.2450110763311386, -0.5083736777305603, 
91, 2364876519, -1.1937246322631836, -0.1483761966228485, 93.18016815185547, 0.033405352383852005, -0.20859302580356598, 9.780444145202637, -0.021079253405332565, -0.27461937069892883, -0.5277240872383118, 
92, 2364893186, -1.1945312023162842, -0.1482338160276413, 93.17759704589844, 0.02244427613914013, -0.2085966020822525, 9.784184455871582, -0.1853335052728653, -0.2593157887458801, -0.515826940536499, 
93, 2364909853, -1.1952030658721924, -0.14756843447685242, 93.17723083496094, 0.015231067314743996, -0.19566860795021057, 9.789817810058594, -0.17680445313453674, -0.22841404378414154, -0.5551167726516724, 
94, 2364926520, -1.1942082643508911, -0.14789864420890808, 93.17308807373047, 0.026639066636562347, -0.21788083016872406, 9.791966438293457, -0.07724791020154953, -0.2889496982097626, -0.4985511898994446, 
95, 2364943187, -1.193937063217163, -0.14795158803462982, 93.1654052734375, 0.016446977853775024, -0.1975782960653305, 9.795307159423828, -0.11949605494737625, -0.27303141355514526, -0.498218297958374, 
96, 2364959854, -1.1929819583892822, -0.14756006002426147, 93.15880584716797, 0.026349617168307304, -0.19361187517642975, 9.789145469665527, -0.0790407806634903, -0.2448190152645111, -0.5857368111610413, 
97, 2364976521, -1.1941723823547363, -0.1485154926776886, 93.14761352539062, 0.03233964368700981, -0.21543429791927338, 9.792678833007812, -0.20880752801895142, -0.32715103030204773, -0.5440009236335754, 
98, 2364993188, -1.1952930688858032, -0.1472163051366806, 93.14830017089844, 0.0256020687520504, -0.21388937532901764, 9.781423568725586, -0.20280134677886963, -0.19270995259284973, -0.44487980008125305, 
99, 2365009855, -1.193647861480713, -0.14622406661510468, 93.14568328857422, 0.02148585394024849, -0.19909818470478058, 9.796944618225098, -0.03669019043445587, -0.2082824558019638, -0.5729048848152161, 
100, 2365026522, -1.1942989826202393, -0.14670878648757935, 93.14344024658203, 0.021260762587189674, -0.2027955949306488, 9.791398048400879, -0.17417916655540466, -0.3007058799266815, -0.4561365246772766, 
101, 2365043189, -1.1945884227752686, -0.14824123680591583, 93.14009094238281, 0.0223334152251482, -0.19472090899944305, 9.78609848022461, -0.1523955762386322, -0.3601914048194885, -0.5896683931350708, 
102, 2365059856, -1.193374514579773, -0.14689341187477112, 93.1382827758789, 0.0319569893181324, -0.1988585889339447, 9.793529510498047, -0.06307126581668854, -0.18885523080825806, -0.5196816921234131, 
103, 2365076523, -1.1932286024093628, -0.14737564325332642, 93.12970733642578, 0.025451770052313805, -0.2040228396654129, 9.80041217803955, -0.12805068492889404, -0.2979397177696228, -0.5698697566986084, 
104, 2365093190, -1.1923753023147583, -0.14879168570041656, 93.12657928466797, 0.026771606877446175, -0.20409360527992249, 9.794859886169434, -0.0849701389670372, -0.35376259684562683, -0.5397235751152039, 
105, 2365109857, -1.1932485103607178, -0.14935293793678284, 93.11589813232422, 0.028048193082213402, -0.1979430764913559, 9.797774314880371, -0.18780513107776642, -0.3035617172718048, -0.4926603138446808, 
106, 2365126524, -1.192515254020691, -0.14865978062152863, 93.11094665527344, 0.023420581594109535, -0.20267796516418457, 9.790754318237305, -0.0931277722120285, -0.22737672924995422, -0.5569481253623962, 
107, 2365143191, -1.19245445728302, -0.14800487458705902, 93.11226654052734, 0.027111226692795753, -0.20135119557380676, 9.785025596618652, -0.13264815509319305, -0.23097531497478485, -0.4648960828781128, 
108, 2365159858, -1.1925413608551025, -0.1479264348745346, 93.10729217529297, 0.018045542761683464, -0.19720280170440674, 9.798843383789062, -0.14170224964618683, -0.2640284597873688, -0.5424129366874695, 
109, 2365176525, -1.193722128868103, -0.14805704355239868, 93.10797882080078, 0.030669553205370903, -0.19375532865524292, 9.791498184204102, -0.2070530503988266, -0.278230756521225, -0.5161086916923523, 
110, 2365193192, -1.1943122148513794, -0.14847609400749207, 93.10873413085938, 0.03186400607228279, -0.20826758444309235, 9.793811798095703, -0.17287293076515198, -0.29372647404670715, -0.5720852613449097, 
111, 2365209859, -1.1983803510665894, -0.14244632422924042, 93.01322174072266, -0.13145655393600464, -0.15085236728191376, 9.800297737121582, -0.39511436223983765, 0.20623989403247833, -5.933106422424316, 
112, 2365226526, -0.7869648933410645, 0.4884995222091675, 68.72740173339844, -3.606722831726074, -9.621031761169434, 12.408329010009766, 28.57505226135254, 62.23822021484375, -1456.508056640625, 
113, 2365243193, 3.175401210784912, 18.077632904052734, 52.407833099365234, -46.8524055480957, 18.31916618347168, 13.730284690856934, 549.1796875, 968.1681518554688, -2021.745849609375, 
114, 2365259860, 0.6287674903869629, 11.421956062316895, -49.6254997253418, -16.823278427124023, 50.81269454956055, -0.7176990509033203, 1267.574951171875, 289.0608825683594, -2041.6724853515625, 
115, 2365276527, 32.83833312988281, -7.906130313873291, 32.32845687866211, -11.83626651763916, 54.77058410644531, -3.4375858306884766, 1027.9835205078125, -903.10107421875, -2042.761474609375, 
116, 2365293194, 28.17393684387207, -0.3428093194961548, 2.8113701343536377, 1.5701708793640137, 54.96168899536133, 0.6633340120315552, -399.86956787109375, -599.3193359375, -2088.434814453125, 
117, 2365309861, -9.092429161071777, -18.559011459350586, 79.70293426513672, -6.357249736785889, 36.649696350097656, 2.920302391052246, -723.10400390625, 734.7902221679688, -2050.18505859375, 
118, 2365326528, 16.300395965576172, -17.36627769470215, 45.1103401184082, -4.422204971313477, 43.19704055786133, 11.817730903625488, 401.837158203125, 290.8107604980469, -1979.7265625, 
119, 2365343195, 24.10548210144043, -7.330273628234863, 13.218238830566406, -5.277664661407471, 31.67011260986328, -2.123598337173462, -22.485475540161133, 15.448907852172852, -1998.5625, 
120, 2365359862, 25.657848358154297, 11.725015640258789, -26.780725479125977, -5.623444080352783, 32.427059173583984, 14.028189659118652, 138.10430908203125, 46.05472946166992, -1998.67138671875, 
121, 2365376529, 2.4009978771209717, 23.917306900024414, -92.77610778808594, -5.403868675231934, 28.78795623779297, 9.672508239746094, -17.952167510986328, -41.97775650024414, -1998.052001953125, 
122, 2365393196, -4.609194755554199, 22.525936126708984, -151.30572509765625, -4.305790424346924, 28.004899978637695, 10.611194610595703, -1.3876171112060547, -13.06697940826416, -1998.0670166015625, 
123, 2365409863, -18.10053825378418, 11.669233322143555, 159.50559997558594, -2.5448360443115234, 26.277198791503906, 9.68191146850586, 4.197182655334473, -5.519669055938721, -1998.0491943359375, 
124, 2365426530, -21.923805236816406, 1.0043103694915771, 123.05450439453125, -2.090792179107666, 24.457599639892578, 9.767525672912598, 13.009221076965332, -0.1502109318971634, -1998.05126953125, 
125, 2365443197, -20.2977237701416, -11.538204193115234, 97.5397720336914, -2.327801465988159, 22.59391212463379, 9.716288566589355, 10.306529998779297, -10.354813575744629, -1998.0462646484375, 
126, 2365459864, -13.605347633361816, -20.489465713500977, 78.5027084350586, -2.520090103149414, 20.75653839111328, 9.699579238891602, 10.152863502502441, -8.718145370483398, -1998.0545654296875, 
127, 2365476531, -7.27484655380249, -24.249250411987305, 70.93673706054688, -2.4171411991119385, 18.535533905029297, 9.917417526245117, 7.168209552764893, -15.810409545898438, -1998.0657958984375, 
128, 2365493198, 6.447448253631592, -34.13188171386719, 72.90052795410156, -1.8154195547103882, 15.83053207397461, 9.707849502563477, 4.028041839599609, -8.491408348083496, -1998.0484619140625, 
129, 2365509865, 18.97647476196289, -6.814827919006348, 55.695987701416016, -1.2892706394195557, 14.501026153564453, 9.767943382263184, 7.304380416870117, -5.997363567352295, -1998.049560546875, 
130, 2365526532, -104.4161605834961, -58.137367248535156, -129.8330841064453, -1.1656285524368286, 13.194793701171875, 9.790496826171875, 7.03941011428833, -7.439383029937744, -1965.964111328125, 
131, 2365543199, -56.103031158447266, -58.42483901977539, 177.95248413085938, -0.419863760471344, 12.020556449890137, 9.754772186279297, 5.245896339416504, -9.435332298278809, -1859.309326171875, 
132, 2365559866, -22.52161979675293, 75.2545166015625, 103.20542907714844, 0.05713929235935211, 10.972210884094238, 10.026281356811523, -2.122741460800171, -11.813920021057129, -1749.432373046875, 
133, 2365576533, -46.43806838989258, -14.612893104553223, 86.8782730102539, 0.4914668798446655, 9.537161827087402, 9.636137962341309, 4.098596096038818, -5.2277703285217285, -1647.636962890625, 
134, 2365593200, 97.77324676513672, -2.431556224822998, 6.129343509674072, 0.8590067625045776, 8.618274688720703, 9.809969902038574, 6.2199578285217285, -1.5244908332824707, -1550.749267578125, 
135, 2365609867, 99.2525634765625, 19.261516571044922, 8.23807430267334, 1.091274380683899, 7.804126262664795, 9.636995315551758, 5.34299898147583, -5.7534661293029785, -1438.7213134765625, 
136, 2365626534, 102.0743408203125, 38.79076385498047, 11.40501880645752, 1.8080403804779053, 7.079135894775391, 9.821115493774414, 4.959307670593262, -5.677090644836426, -1336.7684326171875, 
137, 2365643201, 106.86981201171875, 56.36705017089844, 16.89434051513672, 1.364917278289795, 5.171903610229492, 9.675429344177246, -3.240286350250244, -9.329474449157715, -1252.7763671875, 
138, 2365659868, 122.8238525390625, 72.2010726928711, 32.61735534667969, 1.1048510074615479, 4.744284152984619, 9.877498626708984, 2.3613641262054443, -3.939272403717041, -1184.3604736328125, 
139, 2365676535, -170.48873901367188, 79.73306274414062, 98.43465423583984, 1.3875598907470703, 4.161584854125977, 9.792032241821289, 4.927058219909668, -1.6561566591262817, -1115.9398193359375, 
140, 2365693202, -121.87214660644531, 70.3453598022461, 146.23651123046875, 1.2543507814407349, 3.669304609298706, 9.852147102355957, 1.7509347200393677, -3.9514472484588623, -1036.6260986328125, 
141, 2365709869, -109.83670043945312, 57.13004684448242, 157.24789428710938, 1.4220479726791382, 3.0994434356689453, 9.86807632446289, -5.787802696228027, -9.627657890319824, -950.3375854492188, 
142, 2365726536, -104.64554595947266, 46.156532287597656, 161.8723907470703, 1.1742345094680786, 2.5038177967071533, 9.717622756958008, 3.6064453125, -1.2626293897628784, -869.3457641601562, 
143, 2365743203, -102.42407989501953, 34.86894989013672, 163.23486328125, 1.0481141805648804, 2.1346538066864014, 9.839935302734375, 0.4646027982234955, -2.5965092182159424, -796.4962768554688, 
144, 2365759870, -100.96747589111328, 25.483179092407227, 164.0201873779297, 1.1312907934188843, 1.7256419658660889, 9.781889915466309, -0.003457582090049982, -2.075312376022339, -717.3945922851562, 
145, 2365776537, -100.07186126708984, 17.12937355041504, 164.1908721923828, 1.0170992612838745, 1.324648380279541, 9.79879093170166, 2.54323410987854, -0.12139435112476349, -641.0953369140625, 
146, 2365793204, -99.41993713378906, 9.9118070602417, 164.06570434570312, 0.8707916140556335, 1.0425108671188354, 9.849533081054688, 5.052557945251465, 1.7431584596633911, -569.73193359375, 
147, 2365809871, -99.0619125366211, 3.7333757877349854, 163.85484313964844, 0.8654651045799255, 0.8181087374687195, 9.696157455444336, -3.2660813331604004, -4.428380966186523, -502.0331115722656, 
148, 2365826538, -98.73358917236328, -1.3234652280807495, 163.4441680908203, 0.8646776676177979, 0.6361934542655945, 9.916448593139648, 1.2248286008834839, -1.1848150491714478, -426.3645324707031, 
149, 2365843205, -98.50165557861328, -5.395785331726074, 162.75167846679688, 0.801971971988678, 0.35115206241607666, 9.711771965026855, 0.4387838840484619, -0.9245941638946533, -352.3848571777344, 
150, 2365859872, -98.27190399169922, -8.501717567443848, 162.16970825195312, 0.5971336960792542, 0.32019925117492676, 9.867071151733398, -0.3573722839355469, -1.3043913841247559, -291.6087341308594, 
151, 2365876539, -98.0263671875, -10.865765571594238, 161.32647705078125, 0.6875308156013489, 0.12718325853347778, 9.764565467834473, 1.06643545627594, 0.2695356607437134, -233.14527893066406, 
152, 2365893206, -97.79668426513672, -12.481158256530762, 160.3487091064453, 0.5469062924385071, 0.04429211840033531, 9.727611541748047, -0.4200626611709595, -1.9952510595321655, -177.01414489746094, 
153, 2365909873, -97.48762512207031, -13.319290161132812, 159.45376586914062, 0.5102960467338562, 0.09525495767593384, 9.907280921936035, 1.019557237625122, 1.2707804441452026, -125.37647247314453, 
154, 2365926540, -97.21549987792969, -13.499104499816895, 158.4164581298828, 0.5243938565254211, -0.010030489414930344, 9.78989028930664, -2.3832523822784424, -3.6552813053131104, -75.6344223022461, 
155, 2365943207, -96.84728240966797, -12.959494590759277, 157.1725616455078, 0.4921358823776245, -0.007590057328343391, 9.819417953491211, 0.1405755579471588, -0.647919237613678, -23.411787033081055, 
156, 2365959874, -96.45198822021484, -12.144347190856934, 155.91989135742188, -0.01409025676548481, 0.02212599478662014, 9.783687591552734, -0.24094507098197937, -0.2791464328765869, -0.33271536231040955, 
157, 2365976541, -96.02529907226562, -11.421784400939941, 154.6210174560547, -0.010095760226249695, 0.03948818892240524, 9.800943374633789, -0.10518494993448257, -0.2449406385421753, -0.4413132071495056, 
158, 2365993208, -95.56034851074219, -10.777388572692871, 153.3374786376953, -0.0358729362487793, 0.03399542719125748, 9.78243637084961, -0.05790391564369202, -0.28711196780204773, -0.49177026748657227, 
159, 2366009875, -95.05658721923828, -10.201584815979004, 152.07679748535156, -0.021807711571455002, 0.02132134698331356, 9.785965919494629, -0.07109444588422775, -0.23455467820167542, -0.5328913927078247, 
160, 2366026542, -94.51112365722656, -9.687777519226074, 150.846435546875, -0.02652115374803543, 0.03613042086362839, 9.794283866882324, -0.11843952536582947, -0.2788902521133423, -0.5170499682426453, 
161, 2366043209, -93.92061614990234, -9.23377799987793, 149.5810089111328, -0.026728574186563492, 0.026245785877108574, 9.794645309448242, -0.12416395545005798, -0.3052073121070862, -0.5031422972679138, 
162, 2366059876, -93.28776550292969, -8.826615333557129, 148.3863067626953, -0.025036701932549477, 0.016500912606716156, 9.794888496398926, -0.20937740802764893, -0.1908978372812271, -0.5627685785293579, 
163, 2366076543, -92.60380554199219, -8.463960647583008, 147.19178771972656, -0.02406429871916771, 0.029968617483973503, 9.791763305664062, -0.10519776493310928, -0.2024107575416565, -0.5054602026939392, 
164, 2366093210, -91.87823486328125, -8.135560989379883, 146.09559631347656, -0.02263357862830162, 0.030298031866550446, 9.806482315063477, -0.16890937089920044, -0.29356637597084045, -0.5084057450294495, 
165, 2366109877, -91.10733032226562, -7.842357635498047, 144.98341369628906, -0.01018146239221096, 0.020191267132759094, 9.802351951599121, -0.1644783467054367, -0.15940701961517334, -0.5141173005104065, 
166, 2366126544, -90.29016876220703, -7.578695297241211, 143.86776733398438, -0.027626430615782738, 0.025015302002429962, 9.788369178771973, -0.1676287204027176, -0.19890181720256805, -0.49707210063934326, 
167, 2366143211, -89.43186950683594, -7.336515426635742, 142.8323211669922, -0.024997688829898834, 0.03667758032679558, 9.808903694152832, -0.03638283908367157, -0.30115413665771484, -0.48730728030204773, 
168, 2366159878, -88.5412826538086, -7.112881183624268, 141.95809936523438, -0.027343958616256714, 0.0296071395277977, 9.792202949523926, -0.1824648529291153, -0.18680621683597565, -0.5537720918655396, 
169, 2366176545, -87.60757446289062, -6.908967971801758, 141.01475524902344, -0.02898515947163105, 0.03300481662154198, 9.79239273071289, -0.19011665880680084, -0.2744464874267578, -0.4945363700389862, 
170, 2366193212, -86.64183807373047, -6.718817234039307, 140.1073760986328, -0.026689456775784492, 0.02720382995903492, 9.794698715209961, -0.15797272324562073, -0.2721669375896454, -0.5113383531570435, 
171, 2366209879, -85.63595581054688, -6.542025566101074, 139.13047790527344, -0.024482715874910355, 0.024579273536801338, 9.78514289855957, -0.1370343565940857, -0.2617553770542145, -0.5753316879272461, 
172, 2366226546, -84.60250091552734, -6.371208667755127, 138.1429443359375, -0.033197931945323944, 0.028670454397797585, 9.787446022033691, -0.18841981887817383, -0.3524307310581207, -0.4929420053958893, 
173, 2366243213, -83.53929901123047, -6.204440116882324, 137.2590789794922, -0.02742593362927437, 0.028083955869078636, 9.790020942687988, -0.10437175631523132, -0.24355117976665497, -0.5055435299873352, 
174, 2366259880, -82.45143127441406, -6.041912078857422, 136.38946533203125, -0.034313708543777466, 0.019325824454426765, 9.789581298828125, -0.052269112318754196, -0.29477009177207947, -0.515743613243103, 
175, 2366276547, -81.33676147460938, -5.880764961242676, 135.45867919921875, -0.029464371502399445, 0.03169950097799301, 9.79769229888916, -0.02784740924835205, -0.20146311819553375, -0.507688581943512, 
176, 2366293214, -80.20514678955078, -5.718377590179443, 134.58006286621094, -0.023499134927988052, 0.02142905443906784, 9.79598617553711, -0.09609244018793106, -0.3376714289188385, -0.4591140151023865, 
177, 2366309881, -79.0573959350586, -5.554335117340088, 133.70533752441406, -0.0286992397159338, 0.021610716357827187, 9.786541938781738, -0.1426435261964798, -0.24733543395996094, -0.4518144130706787, 
178, 2366326548, -77.8955078125, -5.389535903930664, 132.8868408203125, -0.029535895213484764, 0.03247196227312088, 9.792531967163086, -0.06732937693595886, -0.3058220148086548, -0.541253924369812, 
179, 2366343215, -76.7286605834961, -5.22222375869751, 132.1277618408203, -0.0364089272916317, 0.021039139479398727, 9.785500526428223, -0.29737621545791626, -0.21499298512935638, -0.5363683104515076, 
180, 2366359882, -75.54944610595703, -5.052793502807617, 131.32733154296875, -0.021378567442297935, 0.023906946182250977, 9.785858154296875, -0.206028550863266, -0.2663208544254303, -0.5792824029922485, 
181, 2366376549, -74.36788940429688, -4.879971027374268, 130.6352996826172, -0.02334190532565117, 0.03455689176917076, 9.787825584411621, -0.10166320949792862, -0.21839307248592377, -0.5422656536102295, 
182, 2366393216, -73.17833709716797, -4.703160285949707, 129.862060546875, -0.02453993447124958, 0.02356005273759365, 9.802162170410156, -0.03019097074866295, -0.17556867003440857, -0.511120617389679, 
183, 2366409883, -71.99425506591797, -4.5244927406311035, 129.25650024414062, -0.024557501077651978, 0.031445957720279694, 9.790815353393555, -0.20926214754581451, -0.2508572041988373, -0.5429956316947937, 
184, 2366426550, -70.81482696533203, -4.345306396484375, 128.6848602294922, -0.0317605696618557, 0.01350335218012333, 9.801361083984375, -0.1883494108915329, -0.2819766402244568, -0.5297667384147644, 
185, 2366443217, -69.63636016845703, -4.16382360458374, 128.09014892578125, -0.019636955112218857, 0.033480454236269, 9.791050910949707, -0.1586066484451294, -0.2911011278629303, -0.4830426573753357, 
186, 2366459884, -68.46294403076172, -3.9806065559387207, 127.54375457763672, -0.013807622715830803, 0.027733828872442245, 9.789838790893555, -0.08898492157459259, -0.2751508057117462, -0.4596390724182129, 
187, 2366476551, -67.29276275634766, -3.795283794403076, 126.90717315673828, -0.019368737936019897, 0.018224352970719337, 9.793010711669922, -0.1454097032546997, -0.29286202788352966, -0.4836382269859314, 
188, 2366493218, -66.13387298583984, -3.608153820037842, 126.33476257324219, -0.026267241686582565, 0.02405356988310814, 9.796053886413574, -0.20163598656654358, -0.35214903950691223, -0.4794441759586334, 
189, 2366509885, -64.98383331298828, -3.4193367958068848, 125.805908203125, -0.018396010622382164, 0.04049697145819664, 9.79788875579834, -0.12835803627967834, -0.2056315392255783, -0.5226911306381226, 
190, 2366526552, -63.845672607421875, -3.2301039695739746, 125.34241485595703, -0.019354434683918953, 0.042978860437870026, 9.792284965515137, -0.16034190356731415, -0.2730890214443207, -0.4788742661476135, 
191, 2366543219, -62.7195930480957, -3.042257308959961, 124.89833068847656, -0.02518007531762123, 0.03451397642493248, 9.793018341064453, -0.09935806691646576, -0.23385034501552582, -0.5397300124168396, 
192, 2366559886, -61.60273361206055, -2.8533451557159424, 124.47200012207031, -0.024568544700741768, 0.025966841727495193, 9.794966697692871, -0.05874912068247795, -0.15272210538387299, -0.5109413266181946, 
193, 2366576553, -60.50123596191406, -2.6652865409851074, 124.02867889404297, -0.030880549922585487, 0.02261951193213463, 9.800292015075684, -0.202718123793602, -0.27735352516174316, -0.46797606348991394, 
194, 2366593220, -59.4119758605957, -2.477010488510132, 123.5730972290039, -0.030458558350801468, 0.0363914854824543, 9.800506591796875, -0.14919398725032806, -0.1966414898633957, -0.4990634024143219, 
195, 2366609887, -58.337608337402344, -2.2899558544158936, 123.17952728271484, -0.02463667094707489, 0.022486817091703415, 9.777421951293945, -0.13542713224887848, -0.2868109941482544, -0.48004597425460815, 
196, 2366626554, -57.27530288696289, -2.10410475730896, 122.7790756225586, -0.017383944243192673, 0.02519795671105385, 9.795918464660645, -0.016795529052615166, -0.23732087016105652, -0.5250283479690552, 
197, 2366643221, -56.23408889770508, -1.9204212427139282, 122.45610046386719, -0.023277534171938896, 0.03141340613365173, 9.802999496459961, -0.21082451939582825, -0.19691681861877441, -0.5293696522712708, 
198, 2366659888, -55.205936431884766, -1.7374173402786255, 122.05461120605469, -0.032221853733062744, 0.036730971187353134, 9.792624473571777, -0.17356446385383606, -0.20025290548801422, -0.47099196910858154, 
199, 2366676555, -54.19572067260742, -1.556473970413208, 121.74730682373047, -0.03133092075586319, 0.025090977549552917, 9.796154022216797, -0.19972781836986542, -0.2714177668094635, -0.41866517066955566, 
200, 2366693222, -53.200225830078125, -1.3778315782546997, 121.40921020507812, -0.016786716878414154, 0.04028955101966858, 9.78930950164795, -0.22166509926319122, -0.2554866671562195, -0.45547065138816833, 
201, 2366709889, -52.22127914428711, -1.2018308639526367, 121.1154556274414, -0.020788492634892464, 0.026728574186563492, 9.797656059265137, -0.19951650500297546, -0.20942863821983337, -0.4839455485343933, 
202, 2366726556, -51.25736618041992, -1.0299798250198364, 120.80307006835938, -0.027290262281894684, 0.02585199661552906, 9.801403999328613, -0.14976383745670319, -0.27353721857070923, -0.5464277267456055, 
203, 2366743223, -50.311161041259766, -0.8607267141342163, 120.54808807373047, -0.030312081798911095, 0.01631433703005314, 9.786759376525879, -0.10450621694326401, -0.22886867821216583, -0.5166913866996765, 
204, 2366759890, -49.38289260864258, -0.6965240240097046, 120.35465240478516, -0.019833644852042198, 0.01657572016119957, 9.78283977508545, -0.11635848879814148, -0.3136146366596222, -0.5165953636169434, 
205, 2366776557, -48.47130584716797, -0.5353785157203674, 120.17385864257812, -0.03285461664199829, 0.031703077256679535, 9.78930950164795, -0.12782657146453857, -0.2504345774650574, -0.4616880714893341, 
206, 2366793224, -47.57719039916992, -0.380736380815506, 120.02285766601562, -0.02081710286438465, 0.028663301840424538, 9.789756774902344, -0.11736378073692322, -0.332472026348114, -0.5154491662979126, 
207, 2366809891, -46.70001220703125, -0.22999528050422668, 119.91387939453125, -0.029249798506498337, 0.02806607447564602, 9.801050186157227, -0.08853669464588165, -0.23441383242607117, -0.4940369129180908, 
208, 2366826558, -45.838348388671875, -0.0836561918258667, 119.73255920410156, -0.030437320470809937, 0.026717495173215866, 9.785150527954102, -0.16728296875953674, -0.2693239450454712, -0.4785669147968292, 
209, 2366843225, -44.99123001098633, 0.059774406254291534, 119.57404327392578, -0.03135961294174194, 0.022294333204627037, 9.810248374938965, -0.10860424488782883, -0.19212724268436432, -0.49171897768974304, 
210, 2366859892, -44.160438537597656, 0.19851474463939667, 119.38626861572266, -0.016940755769610405, 0.02535853534936905, 9.78762149810791, -0.18603144586086273, -0.25232991576194763, -0.5118249654769897, 
211, 2366876559, -43.3442268371582, 0.33300092816352844, 119.24439239501953, -0.029435763135552406, 0.0317281112074852, 9.792707443237305, -0.0770173892378807, -0.2454977035522461, -0.5518896579742432, 
212, 2366893226, -42.5437126159668, 0.4641540050506592, 119.12914276123047, -0.01715506613254547, 0.021189028397202492, 9.78604793548584, -0.0702236145734787, -0.22186359763145447, -0.4985191226005554, 
213, 2366909893, -41.7606086730957, 0.5895240306854248, 119.05502319335938, -0.026152804493904114, 0.029042379930615425, 9.791316032409668, -0.1347675919532776, -0.29163259267807007, -0.5068944692611694, 
214, 2366926560, -40.99019241333008, 0.7102434039115906, 118.97959899902344, -0.031198833137750626, 0.02995431236922741, 9.801990509033203, -0.039052966982126236, -0.31814175844192505, -0.5006323456764221, 
215, 2366943227, -40.23703384399414, 0.8276069164276123, 118.882080078125, -0.016103379428386688, 0.029278717935085297, 9.792824745178223, -0.19151252508163452, -0.214640811085701, -0.5325584411621094, 
216, 2366959894, -39.49732971191406, 0.9408667683601379, 118.83209991455078, -0.029306892305612564, 0.024007361382246017, 9.800256729125977, -0.08519423753023148, -0.19632774591445923, -0.5294849276542664, 
217, 2366976561, -38.77208709716797, 1.0486668348312378, 118.78778076171875, -0.026671353727579117, 0.02695387415587902, 9.79442024230957, -0.12515005469322205, -0.2913380563259125, -0.531098484992981, 
218, 2366993228, -38.061492919921875, 1.1519618034362793, 118.754150390625, -0.029260527342557907, 0.028198394924402237, 9.80082893371582, -0.12809552252292633, -0.2974978983402252, -0.5209815502166748, 
219, 2367009895, -37.36539840698242, 1.2530759572982788, 118.70332336425781, -0.025419369339942932, 0.01684059202671051, 9.788576126098633, -0.22273443639278412, -0.1683458685874939, -0.5093405246734619, 
220, 2367026562, -36.682899475097656, 1.349613070487976, 118.69442749023438, -0.03243977576494217, 0.0259525366127491, 9.800710678100586, -0.17387180030345917, -0.19564257562160492, -0.5195279121398926, 
221, 2367043229, -36.011695861816406, 1.4407258033752441, 118.69297790527344, -0.02921403758227825, 0.016532806679606438, 9.786456108093262, -0.07902798056602478, -0.2918182909488678, -0.5289790630340576, 
222, 2367059896, -35.35491943359375, 1.5297077894210815, 118.65658569335938, -0.030870065093040466, 0.03212480992078781, 9.785618782043457, -0.19555935263633728, -0.21105504035949707, -0.4553617835044861, 
223, 2367076563, -34.70774841308594, 1.6138942241668701, 118.63273620605469, -0.035940881818532944, 0.027214936912059784, 9.791279792785645, -0.028346853330731392, -0.2602698504924774, -0.5300612449645996, 
224, 2367093230, -34.07490539550781, 1.6949485540390015, 118.62250518798828, -0.011318695731461048, 0.027740640565752983, 9.790904998779297, -0.12376055866479874, -0.24986468255519867, -0.5025083422660828, 
225, 2367109897, -33.455142974853516, 1.7709845304489136, 118.6286392211914, -0.024371853098273277, 0.021314196288585663, 9.783129692077637, -0.16446556150913239, -0.32783615589141846, -0.5299844145774841, 
226, 2367126564, -32.84666442871094, 1.844773769378662, 118.6457290649414, -0.030158156529068947, 0.039481326937675476, 9.806014060974121, -0.11389327049255371, -0.27353721857070923, -0.4751347601413727, 
227, 2367143231, -32.249366760253906, 1.914812445640564, 118.63809204101562, -0.029070988297462463, 0.025348156690597534, 9.818527221679688, -0.10542826354503632, -0.22466816008090973, -0.5901101231575012, 
228, 2367159898, -31.663951873779297, 1.98211669921875, 118.63565826416016, -0.023434704169631004, 0.03647765889763832, 9.785518646240234, -0.1373416781425476, -0.2700282633304596, -0.47613367438316345, 
229, 2367176565, -31.089710235595703, 2.046569347381592, 118.64173889160156, -0.02263023890554905, 0.014075951650738716, 9.795879364013672, -0.12936973571777344, -0.22751760482788086, -0.5263025164604187, 
230, 2367193232, -30.52647590637207, 2.107262372970581, 118.66107940673828, -0.025365855544805527, 0.022247986868023872, 9.785150527954102, -0.12940174341201782, -0.2938992977142334, -0.5043588280677795, 
231, 2367209899, -29.973857879638672, 2.164479970932007, 118.67509460449219, -0.028134021908044815, 0.042564019560813904, 9.802523612976074, -0.12543177604675293, -0.3359425961971283, -0.495496928691864, 
232, 2367226566, -29.431562423706055, 2.2199854850769043, 118.6965560913086, -0.027197055518627167, 0.034614112228155136, 9.791337013244629, -0.11415580660104752, -0.2972610294818878, -0.4345579147338867, 
233, 2367243233, -28.901439666748047, 2.272407293319702, 118.72095489501953, -0.019801460206508636, 0.021121080964803696, 9.801375389099121, -0.22172272205352783, -0.2659302353858948, -0.5360545516014099, 
234, 2367259900, -28.380290985107422, 2.323068141937256, 118.75234985351562, -0.025627100840210915, 0.039645835757255554, 9.799641609191895, -0.1621348112821579, -0.23003408312797546, -0.49941563606262207, 
235, 2367276567, -27.868118286132812, 2.3702869415283203, 118.7933578491211, -0.017941832542419434, 0.04153049364686012, 9.797964096069336, -0.11553889513015747, -0.3163168430328369, -0.44235697388648987, 
236, 2367293234, -27.363956451416016, 2.4155282974243164, 118.82439422607422, -0.01952962949872017, 0.02754785120487213, 9.809847831726074, -0.023608503863215446, -0.21817536652088165, -0.5520752668380737, 
237, 2367309901, -26.87079620361328, 2.458433151245117, 118.85014343261719, -0.0314384400844574, 0.03234679624438286, 9.795178413391113, -0.12967069447040558, -0.22354121506214142, -0.5401782393455505, 
238, 2367326568, -26.38621711730957, 2.4979734420776367, 118.87046813964844, -0.0392773300409317, 0.033634670078754425, 9.794966697692871, -0.10243158787488937, -0.30843451619148254, -0.5283579230308533, 
239, 2367343235, -25.911508560180664, 2.536146402359009, 118.91067504882812, -0.018936017528176308, 0.02353859692811966, 9.782410621643066, -0.13708557188510895, -0.28234797716140747, -0.4917958378791809, 
240, 2367359902, -25.445934295654297, 2.571542263031006, 118.95909881591797, -0.02618519403040409, 0.024718310683965683, 9.788326263427734, -0.1534072607755661, -0.3295714259147644, -0.48475879430770874, 
241, 2367376569, -24.989269256591797, 2.6060335636138916, 119.03372192382812, -0.029507286846637726, 0.03602313622832298, 9.797005653381348, -0.1316172480583191, -0.24823185801506042, -0.4814739227294922, 
242, 2367393236, -24.540658950805664, 2.6379432678222656, 119.08450317382812, -0.029160603880882263, 0.02785114385187626, 9.79404067993164, -0.13536950945854187, -0.23317161202430725, -0.5652787089347839, 
243, 2367409903, -24.101089477539062, 2.666860342025757, 119.11393737792969, -0.021314358338713646, 0.03964916989207268, 9.795366287231445, -0.2120283544063568, -0.3064623773097992, -0.5569930076599121, 
244, 2367426570, -23.66802406311035, 2.6950063705444336, 119.17234802246094, -0.02672499790787697, 0.026946721598505974, 9.793991088867188, -0.09166144579648972, -0.26623761653900146, -0.5135025978088379, 
245, 2367443237, -23.242950439453125, 2.7219011783599854, 119.20673370361328, -0.042606934905052185, 0.023928403854370117, 9.789356231689453, -0.12620016932487488, -0.2257567197084427, -0.5160126090049744, 
246, 2367459904, -22.826486587524414, 2.74582839012146, 119.24388885498047, -0.02515861764550209, 0.020302128046751022, 9.787732124328613, -0.1810561567544937, -0.33430972695350647, -0.47751033306121826, 
247, 2367476571, -22.417098999023438, 2.770318031311035, 119.2837905883789, -0.021339228376746178, 0.028795620426535606, 9.802452087402344, -0.15181288123130798, -0.20990249514579773, -0.4583072364330292, 
248, 2367493238, -22.01461410522461, 2.7923972606658936, 119.33900451660156, -0.022540833801031113, 0.02458284981548786, 9.797598838806152, -0.10332804918289185, -0.27497154474258423, -0.4360242486000061, 
249, 2367509905, -21.62052345275879, 2.812645435333252, 119.39727783203125, -0.021936679258942604, 0.019250361248850822, 9.801229476928711, -0.17421117424964905, -0.28569042682647705, -0.4651458263397217, 
250, 2367526572, -21.233673095703125, 2.8313188552856445, 119.47525787353516, -0.035583049058914185, 0.032615385949611664, 9.798750877380371, -0.16286474466323853, -0.29834312200546265, -0.46523547172546387, 
251, 2367543239, -20.852128982543945, 2.84918212890625, 119.52978515625, -0.013056605122983456, 0.022097695618867874, 9.790936470031738, -0.0872560665011406, -0.2169971764087677, -0.5281402468681335, 
252, 2367559906, -20.47588539123535, 2.8651669025421143, 119.59217071533203, -0.030015114694833755, 0.02377854846417904, 9.793018341064453, 0.008682703599333763, -0.25375136733055115, -0.5035392045974731, 
253, 2367576573, -20.111072540283203, 2.878568649291992, 119.61196899414062, -0.03455689176917076, 0.03346972540020943, 9.797635078430176, -0.3206261992454529, -0.2914789319038391, -0.5344025492668152, 
254, 2367593240, -19.75078582763672, 2.8915090560913086, 119.64926147460938, -0.01834951899945736, 0.0483538992702961, 9.802960395812988, -0.18809325993061066, -0.2737805247306824, -0.4843553602695465, 
255, 2367609907, -19.395593643188477, 2.90326189994812, 119.68611907958984, -0.025745293125510216, 0.03474247828125954, 9.799233436584473, -0.10959033668041229, -0.23482364416122437, -0.5858712792396545, 
256, 2367626574, -19.046499252319336, 2.913431406021118, 119.70335388183594, -0.02347082458436489, 0.027879731729626656, 9.786301612854004, -0.12964509427547455, -0.2817589044570923, -0.49553534388542175, 
257, 2367643241, -18.703115463256836, 2.921337366104126, 119.70084381103516, -0.024521954357624054, 0.014684168621897697, 9.780902862548828, -0.11982261389493942, -0.319909006357193, -0.5966413617134094, 
258, 2367659908, -18.366941452026367, 2.930300712585449, 119.72543334960938, -0.015928426757454872, 0.01856766827404499, 9.791512489318848, -0.1770029515028, -0.2629207372665405, -0.46828338503837585, 
259, 2367676575, -18.034069061279297, 2.9384775161743164, 119.75341796875, -0.03211791813373566, 0.026503272354602814, 9.798990249633789, -0.019433636218309402, -0.24500468373298645, -0.5048326849937439, 
260, 2367693242, -17.708938598632812, 2.945187568664551, 119.7572021484375, -0.029500354081392288, 0.042327631264925, 9.796637535095215, -0.16735978424549103, -0.27723824977874756, -0.47665873169898987, 
261, 2367709909, -17.38990020751953, 2.951350450515747, 119.7542953491211, -0.029385695233941078, 0.015213185921311378, 9.78807258605957, -0.2049592137336731, -0.2544558048248291, -0.5052297115325928, 
262, 2367726576, -17.076948165893555, 2.956852436065674, 119.75282287597656, -0.02957165800035, 0.03185327723622322, 9.786759376525879, -0.23979249596595764, -0.2578750550746918, -0.49967172741889954, 
263, 2367743243, -16.768125534057617, 2.9634249210357666, 119.7379150390625, -0.018159979954361916, 0.029246224090456963, 9.791730880737305, -0.17381417751312256, -0.12757046520709991, -0.5562757849693298, 
264, 2367759910, -16.46299934387207, 2.9679009914398193, 119.72335815429688, -0.010074175894260406, 0.0171443372964859, 9.79305362701416, -0.08872877806425095, -0.2458626925945282, -0.49120670557022095, 
265, 2367776577, -16.163949966430664, 2.9713313579559326, 119.71148681640625, -0.025376655161380768, 0.02818787470459938, 9.805042266845703, -0.13521583378314972, -0.2529318034648895, -0.5967182517051697, 
266, 2367793244, -15.871484756469727, 2.975050687789917, 119.70185089111328, -0.020581072196364403, 0.033033426851034164, 9.791698455810547, -0.2333124577999115, -0.226294606924057, -0.5226078629493713, 
267, 2367809911, -15.582572937011719, 2.9768829345703125, 119.69699096679688, -0.03460315242409706, 0.034893520176410675, 9.796883583068848, -0.14863689243793488, -0.30988165736198425, -0.5522162318229675, 
268, 2367826578, -15.29974365234375, 2.9798572063446045, 119.6926040649414, -0.031960565596818924, 0.029189003631472588, 9.801200866699219, -0.22665315866470337, -0.21990422904491425, -0.5279353260993958, 
