sep=,
DeviceTag:,Xsens DOT
FirmwareVersion:,2.1.0
AppVersion:,2022.0.0
SyncStatus:,Un-synced
OutputRate:,60Hz
FilterProfile:,Dynamic
Measurement Mode:,Sensor fusion Mode - Orientation(Euler)
StartTime: ,2022-08-09_13:54:08_086 EDT
© Xsens Technologies B. V. 2005-2022

PacketCounter,SampleTimeFine,Euler_X,Euler_Y,Euler_Z
1,873797380,123.545914,-47.077873,-132.483459
2,873814047,123.548042,-47.121395,-132.534180
3,873830714,123.542633,-47.169239,-132.557602
4,873847381,123.551949,-47.212147,-132.548233
5,873864048,123.556564,-47.233517,-132.593811
6,873880715,123.541199,-47.237423,-132.580994
7,873897382,123.525833,-47.239120,-132.558563
8,873914049,123.510979,-47.247463,-132.545837
9,873930716,123.496185,-47.247864,-132.540070
10,873947383,123.494675,-47.237228,-132.533081
11,873964050,123.494797,-47.239044,-132.526047
12,873980717,123.490501,-47.250927,-132.520126
13,873997384,123.483208,-47.247547,-132.509598
14,874014051,123.482841,-47.248428,-132.507339
15,874030718,123.486572,-47.250061,-132.526306
16,874047385,123.477463,-47.244171,-132.508530
17,874064052,123.453011,-47.235035,-132.476929
18,874080719,123.430946,-47.229919,-132.473297
19,874097386,123.428360,-47.238827,-132.487427
20,874114053,123.425743,-47.239674,-132.492615
21,874130720,123.382271,-47.218403,-132.449493
22,874147387,123.296814,-47.212219,-132.369553
23,874164054,123.241737,-47.176514,-132.316605
24,874180721,123.167122,-47.103123,-132.260925
25,874197388,123.102890,-47.012737,-132.196182
26,874214055,123.077438,-46.930580,-132.150513
27,874230722,123.063492,-46.846615,-132.129974
28,874247389,123.060432,-46.750595,-132.119095
29,874264056,123.032143,-46.640118,-132.072739
30,874280723,123.010544,-46.557205,-132.041122
31,874297390,123.035774,-46.488426,-132.052948
32,874314057,122.995331,-46.449039,-132.000305
33,874330724,123.009827,-46.497482,-132.017365
34,874347391,123.040970,-46.550594,-132.061615
35,874364058,123.036583,-46.593269,-132.056259
36,874380725,123.020737,-46.609642,-132.037369
37,874397392,122.987259,-46.680267,-132.052460
38,874414059,123.007339,-46.752132,-132.084961
39,874430726,123.056992,-46.853580,-132.150192
40,874447393,123.100449,-46.941452,-132.211365
41,874464060,123.141647,-47.043633,-132.267136
42,874480727,123.146713,-47.085861,-132.278336
43,874497394,123.149734,-47.129242,-132.284912
44,874514061,123.189484,-47.159981,-132.318649
45,874530728,123.235847,-47.173595,-132.356339
46,874547395,123.285240,-47.218090,-132.412277
47,874564062,123.319801,-47.243782,-132.443329
48,874580729,123.332916,-47.269016,-132.467148
49,874597396,123.340271,-47.302273,-132.487457
50,874614063,123.356194,-47.310822,-132.495850
51,874630730,123.363930,-47.306538,-132.481155
52,874647397,123.324738,-47.345608,-132.440826
53,874664064,123.330009,-47.356750,-132.423798
54,874680731,123.337997,-47.400707,-132.420120
55,874697398,123.327507,-47.435444,-132.399704
56,874714065,123.299149,-47.494453,-132.355362
57,874730732,123.281067,-47.530918,-132.303528
58,874747399,123.316742,-47.555126,-132.300980
59,874764066,123.307335,-47.684685,-132.298523
60,874780733,123.174911,-47.899231,-132.205643
61,874797400,122.777641,-48.149807,-131.909592
62,874814067,121.887337,-48.420158,-131.174744
63,874830734,121.541565,-49.665768,-131.544846
64,874847401,122.039253,-52.155094,-132.981812
65,874864068,121.681717,-53.528934,-133.531326
66,874880735,123.570374,-55.800037,-136.111084
67,874897402,125.684456,-57.742367,-138.719559
68,874914069,127.186783,-59.394070,-140.654495
69,874930736,128.369980,-61.327682,-142.830765
70,874947403,129.043533,-63.408916,-144.750580
71,874964070,129.830292,-65.572296,-146.875381
72,874980737,130.441559,-67.634895,-148.545120
73,874997404,130.687454,-69.434998,-149.889832
74,875014071,130.030212,-70.923790,-150.556641
75,875030738,126.379959,-71.291306,-148.392502
76,875047405,120.613373,-70.712021,-144.814682
77,875064072,114.099625,-70.996071,-140.941879
78,875080739,107.833336,-70.174683,-137.180847
79,875097406,101.944000,-70.052788,-134.432785
80,875114073,93.569176,-68.566261,-130.704605
81,875130740,83.535248,-65.693184,-126.782806
82,875147407,72.543457,-61.226597,-122.808868
83,875164074,61.923447,-55.585064,-120.089630
84,875180741,53.768551,-50.186829,-119.994202
85,875197408,46.201393,-46.349720,-121.106293
86,875214075,39.097675,-45.126076,-122.599243
87,875230742,33.227818,-45.917976,-124.457451
88,875247409,29.268204,-47.821884,-125.744835
89,875264076,25.948833,-50.983734,-125.075737
90,875280743,21.802202,-54.449516,-121.826591
91,875297410,18.715586,-56.151264,-118.732498
92,875314077,16.213121,-56.947670,-115.589973
93,875330744,15.278491,-57.361206,-113.050201
94,875347411,16.720928,-57.329754,-111.638702
95,875364078,22.301003,-56.087925,-112.184769
96,875380745,32.097023,-53.972912,-114.669479
97,875397412,43.084785,-52.161800,-116.637840
98,875414079,53.248375,-52.686203,-117.223625
99,875430746,65.070229,-56.123619,-118.539818
100,875447413,79.802750,-61.289036,-121.160797
101,875464080,96.927200,-66.272499,-125.960670
102,875480747,116.980637,-71.292213,-133.670654
103,875497414,136.814133,-75.544472,-140.335541
104,875514081,153.588440,-80.655762,-143.867325
105,875530748,-150.329987,-85.642708,171.456161
106,875547415,-80.504814,-80.741333,111.453659
107,875564082,-66.477356,-74.139030,105.665474
108,875580749,-62.685242,-70.659981,107.657143
109,875597416,-62.589149,-70.442253,111.394241
110,875614083,-65.241234,-71.491707,117.083649
111,875630750,-67.891541,-72.336311,121.731949
112,875647417,-68.899010,-72.778931,122.972595
113,875664084,-69.660225,-72.888618,122.191101
114,875680751,-72.032143,-74.071724,120.798264
115,875697418,-75.507324,-75.518028,118.901093
116,875714085,-80.605484,-77.733345,116.579254
117,875730752,-88.264900,-81.740585,115.050819
118,875747419,-119.685295,-88.229225,136.609177
119,875764086,94.959831,-82.245209,-88.501381
120,875780753,85.269295,-71.624046,-90.089722
121,875797420,77.710785,-60.578888,-94.454552
122,875814087,69.542992,-49.955460,-99.333092
123,875830754,59.681530,-41.341370,-103.510208
124,875847421,50.689533,-34.039158,-107.753494
125,875864088,43.867966,-29.592909,-111.948250
126,875880755,39.174561,-29.087307,-115.110451
127,875897422,37.186943,-31.389883,-116.832123
128,875914089,37.812313,-34.335697,-117.770317
129,875930756,39.768536,-36.314899,-117.757614
130,875947423,41.675861,-37.789070,-116.054466
131,875964090,44.383163,-40.053989,-112.949554
132,875980757,50.623383,-42.742271,-110.141357
133,875997424,61.663830,-47.170723,-106.904190
134,876014091,76.234123,-55.426666,-102.441147
135,876030758,92.394661,-66.882980,-98.169136
136,876047425,108.918381,-79.669182,-97.270454
137,876064092,-95.486351,-85.920235,118.890221
138,876080759,-71.566101,-74.093872,104.514153
139,876097426,-62.780277,-67.357315,103.595802
140,876114093,-58.712681,-65.217026,103.752518
141,876130760,-57.583317,-66.668388,103.854774
142,876147427,-56.026649,-69.118118,103.159233
143,876164094,-54.995228,-69.926498,102.813354
144,876180761,-55.869858,-70.168671,102.777199
145,876197428,-57.567364,-72.176491,100.755272
146,876214095,-60.526440,-75.594994,97.511536
147,876230762,-65.637733,-79.982841,94.064598
148,876247429,-71.196503,-85.030838,89.736252
149,876264096,69.742554,-88.996727,-61.561405
150,876280763,86.157211,-80.958412,-88.192551
151,876297430,81.950302,-71.693245,-94.515862
152,876314097,76.477966,-61.989937,-100.301102
153,876330764,70.424797,-52.902500,-105.860405
154,876347431,63.888817,-46.178318,-111.563065
155,876364098,57.549480,-42.313885,-117.034599
156,876380765,52.414982,-41.036991,-121.346931
157,876397432,50.098621,-41.014194,-124.185944
158,876414099,49.910812,-42.602463,-124.226311
159,876430766,50.531429,-44.975910,-121.728111
160,876447433,52.951206,-47.741261,-117.605438
161,876464100,59.397469,-51.103813,-112.603523
162,876480767,71.488358,-55.759811,-106.039093
163,876497434,84.561600,-63.911572,-95.542023
164,876514101,89.176422,-79.895676,-82.775604
165,876530768,-68.830345,-82.128769,86.281990
166,876547435,-68.796577,-67.977234,94.690491
167,876564102,-64.593323,-58.658089,97.201492
168,876580769,-60.052738,-54.214764,97.267670
169,876597436,-56.545063,-53.505016,95.954178
170,876614103,-55.714451,-53.748062,95.604858
171,876630770,-56.364410,-54.191700,95.099091
172,876647437,-57.240997,-56.677090,92.543228
173,876664104,-57.495365,-62.100636,86.864555
174,876680771,-53.490616,-71.320801,73.789009
175,876697438,-21.126980,-81.203064,31.468065
176,876714105,50.876133,-78.817780,-51.249863
177,876730772,67.420944,-67.075081,-79.796463
178,876747439,67.754051,-54.119366,-92.642715
179,876764106,63.869354,-43.621326,-100.757988
180,876780773,58.755398,-36.411057,-106.365143
181,876797440,54.487587,-33.422550,-109.063972
182,876814107,51.791309,-33.488529,-109.613556
183,876830774,50.775223,-34.730961,-109.722801
184,876847441,52.932487,-35.695717,-110.893845
185,876864108,59.811108,-35.970837,-113.807968
186,876880775,71.490692,-37.937653,-118.752266
187,876897442,87.689697,-42.072033,-125.858055
188,876914109,108.825912,-44.601749,-136.486221
189,876930776,131.025925,-43.427902,-147.322998
190,876947443,147.668610,-40.056229,-155.129593
191,876964110,159.249161,-35.618370,-160.919235
192,876980777,166.849823,-30.786818,-164.076828
193,876997444,171.038055,-27.086720,-163.514511
194,877014111,173.658463,-24.592531,-161.226257
195,877030778,176.233643,-22.950386,-159.472610
196,877047445,177.564789,-21.885151,-157.869934
197,877064112,176.744034,-20.875818,-155.442810
198,877080779,175.892517,-19.287521,-153.522812
199,877097446,174.472763,-17.671791,-151.468460
200,877114113,173.113297,-16.010855,-148.923172
201,877130780,172.193619,-14.874804,-147.476974
202,877147447,172.209396,-14.054550,-147.390854
203,877164114,172.435425,-12.427568,-147.868988
204,877180781,171.707138,-8.705976,-147.710068
205,877197448,172.232178,-5.416547,-148.526123
206,877214115,173.180832,-2.966561,-149.339661
207,877230782,174.782684,-1.453390,-149.989807
208,877247449,176.865845,-0.173384,-150.582596
209,877264116,178.342133,0.514803,-150.041534
210,877280783,179.385147,0.631074,-148.130157
211,877297450,-178.234711,1.111978,-145.218079
212,877314117,-177.484741,0.467458,-142.255676
213,877330784,-179.514084,0.188049,-140.343689
214,877347451,-179.644073,0.048286,-139.165619
215,877364118,-179.649658,0.020507,-138.304840
216,877380785,-179.659409,0.012858,-137.577942
217,877397452,-179.639832,0.021707,-137.009995
218,877414119,-179.656250,0.012754,-136.724625
219,877430786,-179.660599,0.010876,-136.724899
220,877447453,-179.664062,0.009742,-136.726212
221,877464120,-179.669159,0.008268,-136.726669
222,877480787,-179.673859,0.006390,-136.727631
223,877497454,-179.678787,0.004759,-136.728882
224,877514121,-179.683914,0.003096,-136.728210
225,877530788,-179.686829,0.002033,-136.727844
226,877547455,-179.691727,0.001143,-136.727295
227,877564122,-179.697037,-0.001281,-136.727554
228,877580789,-179.700668,-0.003595,-136.727615
229,877597456,-179.705750,-0.005564,-136.727997
230,877614123,-179.709854,-0.007441,-136.728973
231,877630790,-179.712860,-0.009588,-136.728088
232,877647457,-179.717026,-0.011752,-136.728134
233,877664124,-179.719849,-0.014388,-136.727646
234,877680791,-179.722549,-0.016181,-136.728012
235,877697458,-179.727234,-0.017998,-136.726913
236,877714125,-179.729996,-0.019850,-136.726974
237,877730792,-179.734497,-0.022350,-136.727600
238,877747459,-179.738495,-0.025251,-136.727631
239,877764126,-179.742355,-0.026939,-136.727295
240,877780793,-179.745453,-0.031052,-136.727432
241,877797460,-179.748459,-0.033628,-136.728378
242,877814127,-179.750992,-0.037375,-136.730164
243,877830794,-179.753845,-0.040992,-136.730347
244,877847461,-179.756210,-0.043549,-136.730164
245,877864128,-179.759933,-0.046496,-136.730362
246,877880795,-179.763382,-0.049414,-136.730087
247,877897462,-179.766586,-0.052504,-136.729813
248,877914129,-179.770096,-0.054040,-136.729706
249,877930796,-179.772888,-0.057555,-136.729523
250,877947463,-179.776291,-0.060656,-136.730698
251,877964130,-179.779587,-0.063751,-136.730820
252,877980797,-179.781662,-0.067480,-136.730057
253,877997464,-179.784546,-0.069415,-136.730484
254,878014131,-179.787704,-0.072620,-136.730164
255,878030798,-179.789444,-0.076534,-136.730469
256,878047465,-179.791275,-0.079776,-136.730774
257,878064132,-179.794174,-0.082232,-136.732147
258,878080799,-179.795776,-0.086171,-136.732513
259,878097466,-179.798676,-0.088814,-136.733063
260,878114133,-179.801422,-0.090647,-136.733612
261,878130800,-179.804031,-0.093443,-136.733749
262,878147467,-179.806885,-0.096795,-136.734344
263,878164134,-179.810028,-0.099597,-136.734360
264,878180801,-179.813843,-0.102303,-136.734787
265,878197468,-179.816162,-0.104965,-136.734772
266,878214135,-179.817978,-0.107585,-136.734985
267,878230802,-179.819290,-0.112973,-136.734802
268,878247469,-179.823318,-0.115325,-136.735794
269,878264136,-179.826950,-0.118131,-136.736816
270,878280803,-179.829025,-0.120408,-136.737335
271,878297470,-179.831100,-0.122950,-136.737808
272,878314137,-179.834015,-0.126113,-136.738068
273,878330804,-179.837906,-0.127881,-136.739029
274,878347471,-179.842377,-0.130714,-136.738953
275,878364138,-179.845581,-0.132897,-136.739563
276,878380805,-179.847565,-0.136147,-136.739014
277,878397472,-179.850815,-0.139276,-136.739975
278,878414139,-179.853653,-0.143318,-136.740936
279,878430806,-179.856415,-0.147500,-136.740479
280,878447473,-179.859131,-0.151680,-136.739899
281,878464140,-179.861755,-0.154670,-136.740341
282,878480807,-179.864426,-0.156838,-136.741119
283,878497474,-179.866547,-0.160874,-136.741318
284,878514141,-179.868896,-0.164433,-136.741180
285,878530808,-179.871582,-0.168025,-136.741730
286,878547475,-179.872955,-0.172231,-136.742050
287,878564142,-179.876633,-0.175344,-136.741837
288,878580809,-179.878906,-0.178671,-136.743942
289,878597476,-179.881470,-0.182195,-136.745270
290,878614143,-179.883286,-0.186254,-136.746719
291,878630810,-179.885345,-0.190279,-136.747849
292,878647477,-179.888000,-0.193878,-136.748581
293,878664144,-179.890915,-0.196482,-136.749725
294,878680811,-179.892838,-0.200850,-136.750641
295,878697478,-179.896576,-0.203279,-136.751175
296,878714145,-179.899231,-0.207179,-136.751801
297,878730812,-179.901688,-0.211364,-136.752701
298,878747479,-179.904800,-0.214994,-136.753967
299,878764146,-179.906967,-0.218421,-136.754593
300,878780813,-179.909256,-0.222276,-136.756332
301,878797480,-179.911621,-0.227316,-136.756119
302,878814147,-179.913696,-0.231112,-136.756699
303,878830814,-179.914627,-0.234750,-136.757080
304,878847481,-179.916046,-0.238318,-136.757645
305,878864148,-179.918900,-0.241487,-136.758896
306,878880815,-179.920273,-0.245474,-136.759399
307,878897482,-179.921234,-0.249318,-136.760681
308,878914149,-179.925125,-0.252895,-136.761765
309,878930816,-179.927322,-0.254712,-136.763138
310,878947483,-179.929962,-0.258362,-136.762924
311,878964150,-179.930511,-0.261255,-136.762711
312,878980817,-179.931946,-0.264419,-136.763412
313,878997484,-179.934814,-0.267458,-136.763687
314,879014151,-179.937759,-0.271172,-136.763290
315,879030818,-179.939789,-0.275621,-136.764053
316,879047485,-179.943298,-0.278196,-136.766144
317,879064152,-179.945389,-0.282893,-136.766266
318,879080819,-179.948547,-0.285173,-136.766312
319,879097486,-179.952118,-0.288590,-136.767059
320,879114153,-179.954086,-0.293495,-136.767410
321,879130820,-179.957108,-0.296913,-136.768234
322,879147487,-179.959137,-0.300188,-136.769424
323,879164154,-179.961685,-0.304211,-136.771088
324,879180821,-179.961624,-0.308724,-136.771759
325,879197488,-179.963547,-0.311986,-136.771469
326,879214155,-179.963791,-0.317412,-136.771805
327,879230822,-179.967896,-0.320695,-136.772339
328,879247489,-179.968597,-0.323673,-136.772934
329,879264156,-179.970078,-0.327738,-136.773010
330,879280823,-179.971832,-0.330544,-136.773590
331,879297490,-179.975281,-0.332960,-136.774109
332,879314157,-179.978653,-0.335522,-136.774277
333,879330824,-179.982666,-0.339133,-136.774063
334,879347491,-179.985138,-0.342002,-136.774841
335,879364158,-179.987030,-0.345111,-136.775940
336,879380825,-179.988388,-0.350795,-136.777512
337,879397492,-179.990860,-0.353239,-136.778229
338,879414159,-179.991913,-0.357734,-136.778931
339,879430826,-179.992752,-0.361999,-136.779037
340,879447493,-179.994904,-0.365274,-136.778839
341,879464160,-179.995865,-0.369153,-136.779312
342,879480827,-179.997009,-0.372906,-136.780273
343,879497494,-179.997101,-0.376088,-136.780197
344,879514161,-179.999863,-0.379433,-136.780487
345,879530828,-179.999084,-0.383803,-136.779861
346,879547495,179.997940,-0.387126,-136.779373
347,879564162,179.996765,-0.391123,-136.779907
348,879580829,179.995316,-0.394763,-136.781372
349,879597496,179.993500,-0.399239,-136.781784
350,879614163,179.992218,-0.402835,-136.782455
351,879630830,179.989868,-0.405504,-136.783783
352,879647497,179.988174,-0.409512,-136.784225
353,879664164,179.987167,-0.413051,-136.784164
354,879680831,179.985504,-0.415722,-136.784515
355,879697498,179.983261,-0.418187,-136.785187
356,879714165,179.983093,-0.420855,-136.785492
357,879730832,179.981354,-0.425138,-136.785080
358,879747499,179.981659,-0.428733,-136.784531
359,879764166,-179.667160,-0.265097,-136.415466
360,879780833,-179.665634,-0.267564,-136.415054
361,879797500,-179.666336,-0.268731,-136.414764
362,879814167,-179.667007,-0.269688,-136.414474
363,879830834,-179.666168,-0.271612,-136.414169
364,879847501,-179.667465,-0.273932,-136.413681
365,879864168,-179.669037,-0.275646,-136.413116
366,879880835,-179.671127,-0.276234,-136.412827
367,879897502,-179.672684,-0.278810,-136.412537
368,879914169,-179.672653,-0.280434,-136.412766
369,879930836,-179.672318,-0.281068,-136.412430
370,879947503,-179.673477,-0.283036,-136.412155
371,879964170,-179.674835,-0.284336,-136.412506
372,879980837,-179.674637,-0.287399,-136.412186
373,879997504,-179.674240,-0.290087,-136.411835
374,880014171,-179.674210,-0.291424,-136.411194
375,880030838,-179.674301,-0.293389,-136.411026
376,880047505,-179.675293,-0.295081,-136.410721
377,880064172,-179.674774,-0.296000,-136.410065
378,880080839,-179.676163,-0.298390,-136.410629
379,880097506,-179.676590,-0.299567,-136.409897
380,880114173,-179.677750,-0.301001,-136.410141
381,880130840,-179.677994,-0.301803,-136.410645
382,880147507,-179.678940,-0.302821,-136.410492
383,880164174,-179.679214,-0.303668,-136.410202
384,880180841,-179.679657,-0.305160,-136.409988
385,880197508,-179.678940,-0.306157,-136.409882
386,880214175,-179.680847,-0.306553,-136.410049
387,880230842,-179.681030,-0.308567,-136.410095
388,880247509,-179.683670,-0.310769,-136.410339
389,880264176,-179.684464,-0.311731,-136.410568
390,880280843,-179.685059,-0.313100,-136.410339
391,880297510,-179.685867,-0.313989,-136.410370
392,880314177,-179.688278,-0.315690,-136.410690
393,880330844,-179.689438,-0.317683,-136.410706
394,880347511,-179.690063,-0.319532,-136.411743
395,880364178,-179.690155,-0.320764,-136.411469
396,880380845,-179.691910,-0.322639,-136.410934
397,880397512,-179.692352,-0.323962,-136.410843
398,880414179,-179.692337,-0.325311,-136.410843
399,880430846,-179.691071,-0.328190,-136.410812
400,880447513,-179.691605,-0.329695,-136.410416
401,880464180,-179.692337,-0.330586,-136.410477
402,880480847,-179.692566,-0.331996,-136.410278
403,880497514,-179.693939,-0.333563,-136.409897
404,880514181,-179.696304,-0.335338,-136.410233
405,880530848,-179.695801,-0.336505,-136.410324
406,880547515,-179.695007,-0.337988,-136.411011
407,880564182,-179.695480,-0.338230,-136.409912
408,880580849,-179.696716,-0.338366,-136.410355
409,880597516,-179.697495,-0.340423,-136.408707
410,880614183,-179.697311,-0.341940,-136.409210
411,880630850,-179.697464,-0.342974,-136.409485
412,880647517,-179.697235,-0.344355,-136.409851
413,880664184,-179.696579,-0.345981,-136.409714
414,880680851,-179.696136,-0.347720,-136.410538
415,880697518,-179.698090,-0.348927,-136.410522
416,880714185,-179.699722,-0.351176,-136.411850
417,880730852,-179.700272,-0.352274,-136.411591
418,880747519,-179.699860,-0.353187,-136.410599
419,880764186,-179.701035,-0.354868,-136.410110
420,880780853,-179.702164,-0.356272,-136.410492
421,880797520,-179.702423,-0.358112,-136.410187
422,880814187,-179.703125,-0.359546,-136.409912
423,880830854,-179.703598,-0.361021,-136.410019
424,880847521,-179.702606,-0.362206,-136.409698
425,880864188,-179.701385,-0.363164,-136.408936
426,880880855,-179.703308,-0.362586,-136.409088
427,880897522,-179.704788,-0.363901,-136.408798
428,880914189,-179.705704,-0.365953,-136.408829
429,880930856,-179.706726,-0.366910,-136.408737
430,880947523,-179.706955,-0.368131,-136.408432
431,880964190,-179.707077,-0.369762,-136.408325
432,880980857,-179.707016,-0.370787,-136.407623
433,880997524,-179.706726,-0.373411,-136.407486
434,881014191,-179.706146,-0.374740,-136.407806
435,881030858,-179.705460,-0.376037,-136.407761
436,881047525,-179.706329,-0.377812,-136.407928
437,881064192,-179.705643,-0.379369,-136.408020
438,881080859,-179.706757,-0.380310,-136.407288
439,881097526,-179.706879,-0.380990,-136.406387
440,881114193,-179.706497,-0.381247,-136.406738
441,881130860,-179.706894,-0.382057,-136.406723
442,881147527,-179.708069,-0.384132,-136.406738
443,881164194,-179.708923,-0.386006,-136.406540
444,881180861,-179.708984,-0.387437,-136.406387
445,881197528,-179.708405,-0.389026,-136.406738
446,881214195,-179.710312,-0.390684,-136.406113
447,881230862,-179.710037,-0.392240,-136.406036
448,881247529,-179.710815,-0.392900,-136.406479
449,881264196,-179.710602,-0.394264,-136.407211
450,881280863,-179.711899,-0.395933,-136.407425
451,881297530,-179.712067,-0.397486,-136.407043
452,881314197,-179.712021,-0.398510,-136.406891
453,881330864,-179.712494,-0.399063,-136.406433
454,881347531,-179.713013,-0.399396,-136.406235
455,881364198,-179.713150,-0.399988,-136.405136
456,881380865,-179.714401,-0.399676,-136.404587
457,881397532,-179.715866,-0.400568,-136.404541
458,881414199,-179.716522,-0.401023,-136.405319
459,881430866,-179.718399,-0.402164,-136.405350
460,881447533,-179.718735,-0.401279,-136.405960
461,881464200,-179.719482,-0.402757,-136.406113
462,881480867,-179.720245,-0.404329,-136.407410
463,881497534,-179.718536,-0.405934,-136.406311
464,881514201,-179.718033,-0.407895,-136.405853
465,881530868,-179.718781,-0.408823,-136.405594
466,881547535,-179.719391,-0.409583,-136.405685
467,881564202,-179.718643,-0.410681,-136.406219
468,881580869,-179.719238,-0.411836,-136.406204
469,881597536,-179.720291,-0.413648,-136.406006
470,881614203,-179.721115,-0.415019,-136.405197
471,881630870,-179.724396,-0.414808,-136.405319
472,881647537,-179.723831,-0.416368,-136.404297
473,881664204,-179.722763,-0.417161,-136.404190
474,881680871,-179.723236,-0.418058,-136.404404
475,881697538,-179.722839,-0.418672,-136.404968
476,881714205,-179.723877,-0.419898,-136.403946
477,881730872,-179.726074,-0.421413,-136.404480
478,881747539,-179.725861,-0.421482,-136.403366
479,881764206,-179.714813,-0.434938,-136.414200
480,881780873,-179.714874,-0.435328,-136.414139
481,881797540,-179.714340,-0.437318,-136.414001
482,881814207,-179.713608,-0.438770,-136.413681
483,881830874,-179.714676,-0.439919,-136.413406
484,881847541,-179.714722,-0.441655,-136.414093
485,881864208,-179.715271,-0.442575,-136.413147
486,881880875,-179.715195,-0.442845,-136.413010
487,881897542,-179.715500,-0.444474,-136.411713
488,881914209,-179.715088,-0.443871,-136.411301
489,881930876,-179.715286,-0.445256,-136.410629
490,881947543,-179.715424,-0.446870,-136.411453
491,881964210,-179.715378,-0.447462,-136.413452
492,881980877,-179.714981,-0.448281,-136.414307
493,881997544,-179.715149,-0.449242,-136.414490
494,882014211,-179.714508,-0.449568,-136.415298
495,882030878,-179.714203,-0.451068,-136.416046
496,882047545,-179.714432,-0.451893,-136.415848
497,882064212,-179.713074,-0.452900,-136.415680
498,882080879,-179.713623,-0.453613,-136.416046
499,882097546,-179.715073,-0.455107,-136.416122
500,882114213,-179.716309,-0.454891,-136.416763
501,882130880,-179.716583,-0.454911,-136.418137
502,882147547,-179.716782,-0.455590,-136.415894
503,882164214,-179.716202,-0.456468,-136.414642
504,882180881,-179.716644,-0.457474,-136.415237
505,882197548,-179.716888,-0.459032,-136.415375
506,882214215,-179.715988,-0.460811,-136.415451
507,882230882,-179.716309,-0.462267,-136.415558
508,882247549,-179.716309,-0.463196,-136.416000
509,882264216,-179.717407,-0.462926,-136.416245
510,882280883,-179.718155,-0.463803,-136.416290
511,882297550,-179.718872,-0.464565,-136.416580
512,882314217,-179.718979,-0.464929,-136.415909
513,882330884,-179.719193,-0.465981,-136.418915
514,882347551,-179.718979,-0.466451,-136.420395
515,882364218,-179.717804,-0.466674,-136.420456
516,882380885,-179.718201,-0.466453,-136.422134
517,882397552,-179.719803,-0.467278,-136.423691
518,882414219,-179.719864,-0.469757,-136.421692
519,882430886,-179.720154,-0.470385,-136.420959
520,882447553,-179.720764,-0.471303,-136.424911
521,882464220,-179.720749,-0.472636,-136.433228
522,882480887,-179.719910,-0.473803,-136.432266
523,882497554,-179.719299,-0.476204,-136.431854
524,882514221,-179.720276,-0.477372,-136.431900
525,882530888,-179.719833,-0.478501,-136.432449
526,882547555,-179.718643,-0.480074,-136.431274
527,882564222,-179.717987,-0.481140,-136.432953
528,882580889,-179.718750,-0.481841,-136.433807
529,882597556,-179.718567,-0.481996,-136.435135
530,882614223,-179.719025,-0.482486,-136.433884
531,882630890,-179.718002,-0.483991,-136.432098
532,882647557,-179.717194,-0.485397,-136.432831
533,882664224,-179.717270,-0.486496,-136.429214
534,882680891,-179.715134,-0.486994,-136.429504
535,882697558,-179.715652,-0.487674,-136.428253
536,882714225,-179.715225,-0.488700,-136.426926
537,882730892,-179.715851,-0.489660,-136.427261
538,882747559,-179.717712,-0.490376,-136.428223
539,882764226,-179.719177,-0.490853,-136.425659
540,882780893,-179.719345,-0.492115,-136.425110
541,882797560,-179.719254,-0.492447,-136.425934
542,882814227,-179.719147,-0.493375,-136.426331
543,882830894,-179.719177,-0.493792,-136.426590
544,882847561,-179.719818,-0.494462,-136.429581
545,882864228,-179.719681,-0.495520,-136.427887
546,882880895,-179.720032,-0.496420,-136.421921
547,882897562,-179.720169,-0.497120,-136.422394
548,882914229,-179.720276,-0.497987,-136.421188
549,882930896,-179.720398,-0.498824,-136.423386
550,882947563,-179.719742,-0.499385,-136.423431
551,882964230,-179.719955,-0.500300,-136.425018
552,882980897,-179.720520,-0.500537,-136.425034
553,882997564,-179.721313,-0.500472,-136.425385
554,883014231,-179.721207,-0.502252,-136.426025
555,883030898,-179.719299,-0.503430,-136.427689
556,883047565,-179.720245,-0.504958,-136.428452
557,883064232,-179.720703,-0.506099,-136.426422
558,883080899,-179.720886,-0.507378,-136.424088
559,883097566,-179.721405,-0.508666,-136.423431
560,883114233,-179.720352,-0.509556,-136.425537
561,883130900,-179.719803,-0.511515,-136.425949
562,883147567,-179.720078,-0.512242,-136.426117
563,883164234,-179.720047,-0.513008,-136.426193
564,883180901,-179.720703,-0.513352,-136.426712
565,883197568,-179.721771,-0.513930,-136.426331
566,883214235,-179.721542,-0.514031,-136.426758
567,883230902,-179.720673,-0.512929,-136.426758
568,883247569,-179.719925,-0.513451,-136.428741
569,883264236,-179.720413,-0.513714,-136.429581
570,883280903,-179.722031,-0.513719,-136.430237
571,883297570,-179.720383,-0.514299,-136.430038
572,883314237,-179.721466,-0.514435,-136.429153
573,883330904,-179.720856,-0.515084,-136.429901
574,883347571,-179.720963,-0.516143,-136.429352
575,883364238,-179.722183,-0.516460,-136.429565
576,883380905,-179.721069,-0.517024,-136.430008
577,883397572,-179.720642,-0.516810,-136.428574
578,883414239,-179.720078,-0.518216,-136.428436
579,883430906,-179.719254,-0.518651,-136.428452
580,883447573,-179.719818,-0.518746,-136.428101
581,883464240,-179.719498,-0.520068,-136.427292
582,883480907,-179.720383,-0.520305,-136.426682
583,883497574,-179.720047,-0.520508,-136.429184
584,883514241,-179.719559,-0.520725,-136.427933
585,883530908,-179.719330,-0.521333,-136.427078
586,883547575,-179.720032,-0.521333,-136.428711
587,883564242,-179.720169,-0.521394,-136.428604
588,883580909,-179.720291,-0.521845,-136.429291
589,883597576,-179.721710,-0.523147,-136.429840
590,883614243,-179.721390,-0.522937,-136.428864
591,883630910,-179.720779,-0.524026,-136.429565
592,883647577,-179.721069,-0.525198,-136.430542
593,883664244,-179.720856,-0.526750,-136.428757
594,883680911,-179.720490,-0.526898,-136.428345
595,883697578,-179.720367,-0.527439,-136.428284
596,883714245,-179.720581,-0.529158,-136.428284
597,883730912,-179.721436,-0.528936,-136.428299
598,883747579,-179.723282,-0.528787,-136.429718
599,883764246,-179.743423,-0.534530,-136.431259
600,883780913,-179.743103,-0.534840,-136.432816
601,883797580,-179.743347,-0.535880,-136.432587
602,883814247,-179.744278,-0.536456,-136.432831
603,883830914,-179.744934,-0.536541,-136.431839
604,883847581,-179.746307,-0.536012,-136.432373
605,883864248,-179.746414,-0.537143,-136.433334
606,883880915,-179.747238,-0.537842,-136.434540
607,883897582,-179.748093,-0.539406,-136.435333
608,883914249,-179.748718,-0.541367,-136.435638
609,883930916,-179.749084,-0.542700,-136.436066
610,883947583,-179.748383,-0.544300,-136.435974
611,883964250,-179.748566,-0.544146,-136.437317
612,883980917,-179.748398,-0.545777,-136.437668
613,883997584,-179.748505,-0.546606,-136.437729
614,884014251,-179.749237,-0.548273,-136.437469
615,884030918,-179.750229,-0.547776,-136.438461
616,884047585,-179.750061,-0.548699,-136.439911
617,884064252,-179.750412,-0.549331,-136.440125
618,884080919,-179.748627,-0.550392,-136.440369
619,884097586,-179.749161,-0.551577,-136.441711
620,884114253,-179.750183,-0.551692,-136.441406
621,884130920,-179.750641,-0.552082,-136.442215
622,884147587,-179.750671,-0.552826,-136.442886
623,884164254,-179.750839,-0.553341,-136.442780
624,884180921,-179.748795,-0.554565,-136.443008
625,884197588,-179.748032,-0.555490,-136.444000
626,884214255,-179.747955,-0.555318,-136.444153
627,884230922,-179.748383,-0.556514,-136.442764
628,884247589,-179.748199,-0.557827,-136.441635
629,884264256,-179.748444,-0.559030,-136.441956
630,884280923,-179.748199,-0.560689,-136.442322
631,884297590,-179.749939,-0.562161,-136.442337
632,884314257,-179.747849,-0.562037,-136.441696
633,884330924,-179.730362,-0.555622,-135.037689
634,884347591,-179.774109,-0.572854,-131.903671
635,884364258,179.959946,-0.579900,-134.080643
636,884380925,179.304626,-0.526500,-136.926605
637,884397592,179.251373,-0.570529,-139.801010
638,884414259,179.181183,-0.555666,-142.589676
639,884430926,179.089508,-0.553383,-145.512512
640,884447593,179.075775,-0.706634,-149.044754
641,884464260,179.045242,-1.180811,-153.118042
642,884480927,179.104294,-1.961305,-157.861603
643,884497594,178.916458,-2.977961,-162.171326
644,884514261,178.801849,-4.555382,-166.927048
645,884530928,178.875122,-6.788128,-172.716614
646,884547595,179.225494,-8.954488,-178.542862
647,884564262,179.336105,-10.183165,178.838531
648,884580929,179.460251,-10.883060,177.236343
649,884597596,179.324265,-12.672828,173.811493
650,884614263,179.418884,-14.555629,167.985077
651,884630930,-179.006989,-16.069483,160.145721
652,884647597,-178.491287,-17.972414,155.023956
653,884664264,-178.627090,-20.195541,152.927109
654,884680931,-179.146576,-23.149820,152.822952
655,884697598,179.229568,-26.887207,152.355011
656,884714265,176.967041,-31.363598,150.834732
657,884730932,172.883331,-36.383183,150.652954
658,884747599,166.560593,-41.884773,151.849182
659,884764266,158.137100,-47.728062,154.342438
660,884780933,149.844147,-53.451061,157.270142
661,884797600,140.968430,-58.382141,161.300827
662,884814267,127.239403,-63.016178,169.893997
663,884830934,108.682549,-65.586922,-177.530716
664,884847601,89.996140,-67.444870,-165.766312
665,884864268,73.383995,-68.724884,-156.096664
666,884880935,60.898140,-70.262444,-149.227890
667,884897602,51.160595,-72.640694,-143.425629
668,884914269,40.919312,-74.823570,-136.417068
669,884930936,30.885761,-76.460442,-128.619720
670,884947603,18.903343,-77.853584,-117.841515
671,884964270,6.097691,-78.390434,-105.026184
672,884980937,-3.995673,-78.103439,-93.142632
673,884997604,0.318586,-77.184105,-92.039497
674,885014271,5.295805,-77.231400,-88.069733
675,885030938,17.505644,-77.820580,-89.279427
676,885047605,34.449760,-79.077499,-94.744408
677,885064272,46.791698,-81.256660,-96.067307
678,885080939,41.248726,-85.436920,-81.376183
679,885097606,-71.858536,-87.260765,39.541065
680,885114273,-99.816040,-80.576317,74.574272
681,885130940,-99.339439,-73.557343,80.941406
682,885147607,-94.384285,-67.521790,82.368240
683,885164274,-89.452583,-62.302574,83.586121
684,885180941,-84.723351,-58.104366,84.628372
685,885197608,-80.455383,-54.533279,84.781715
686,885214275,-78.416557,-51.935452,84.166924
687,885230942,-77.634048,-52.922955,81.982948
688,885247609,-77.667328,-56.823410,77.922401
689,885264276,-78.711739,-62.069256,72.265633
690,885280943,-79.069916,-67.864159,63.537659
691,885297610,-71.974724,-75.119476,46.670990
692,885314277,-45.367886,-81.242516,9.975655
693,885330944,4.798355,-80.962845,-51.622509
694,885347611,25.365971,-75.592842,-84.415558
695,885364278,29.076355,-70.963799,-99.733055
696,885380945,29.610151,-68.546188,-110.679260
697,885397612,29.517164,-69.016495,-118.973717
698,885414279,30.886219,-72.151268,-124.863892
699,885430946,30.879683,-76.080727,-127.038979
700,885447613,33.821247,-78.778137,-129.543427
701,885464280,37.235069,-80.096466,-130.882095
702,885480947,40.045269,-80.771294,-129.677948
703,885497614,42.299614,-81.451210,-125.251846
704,885514281,44.845116,-82.227615,-118.398582
705,885530948,52.567425,-82.766037,-115.434662
706,885547615,64.323586,-84.337769,-116.689018
707,885564282,92.118553,-87.339645,-134.315842
708,885580949,-145.288132,-86.938484,112.977425
709,885597616,-117.070686,-81.471977,93.887077
710,885614283,-105.719803,-75.569908,90.721115
711,885630950,-98.068810,-70.480354,90.155251
712,885647617,-91.532722,-66.818542,89.883423
713,885664284,-85.720070,-64.125092,88.977089
714,885680951,-81.409309,-62.309303,87.682518
715,885697618,-79.289375,-61.326843,86.503975
716,885714285,-78.952820,-61.447060,84.964500
717,885730952,-80.213089,-62.531475,82.559608
718,885747619,-81.692490,-65.158440,77.889801
719,885764286,-82.245583,-69.661903,69.784752
720,885780953,-79.238098,-74.965332,56.861401
721,885797620,-68.996834,-80.063522,36.159428
722,885814287,-46.263569,-83.207977,2.059846
723,885830954,-7.828247,-82.874321,-48.462254
724,885847621,14.978941,-79.362297,-83.359100
725,885864288,24.950911,-75.810890,-103.392189
726,885880955,28.905668,-74.943314,-114.336739
727,885897622,26.557928,-76.941849,-117.351173
728,885914289,24.662834,-79.393425,-118.671944
729,885930956,26.966057,-81.111710,-121.860374
730,885947623,28.743315,-82.380089,-122.768280
731,885964290,29.346169,-82.999634,-120.698364
732,885980957,30.249611,-83.354385,-116.573135
733,885997624,29.025471,-83.737282,-107.522263
734,886014291,24.994720,-83.874458,-95.046021
735,886030958,21.219032,-83.894371,-83.286491
736,886047625,19.482428,-84.511955,-73.501190
737,886064292,4.875671,-86.150101,-51.108498
738,886080959,-54.113438,-86.620209,15.519918
739,886097626,-89.183548,-82.585236,58.306698
740,886114293,-93.929016,-76.810318,70.982918
741,886130960,-92.560547,-70.459038,77.136703
742,886147627,-89.425743,-64.457932,80.666565
743,886164294,-85.590309,-59.642361,82.847649
744,886180961,-83.148598,-55.962158,84.402763
745,886197628,-82.777451,-53.551773,85.234413
746,886214295,-84.071976,-53.040016,85.303467
747,886230962,-87.057419,-54.678741,84.183304
748,886247629,-92.349312,-58.343990,82.261635
749,886264296,-98.786263,-62.994385,79.234245
750,886280963,-104.200981,-69.035522,74.558868
751,886297630,-109.336380,-76.162766,69.188637
752,886314297,-114.603828,-83.114281,62.754120
753,886330964,-52.927120,-89.331192,-10.861038
754,886347631,43.182957,-84.308800,-117.217949
755,886364298,40.444695,-80.589989,-123.132576
756,886380965,35.003407,-80.139488,-125.165230
757,886397632,31.307802,-81.147881,-127.625526
758,886414299,31.745111,-82.045845,-133.508682
759,886430966,35.942837,-82.681557,-142.472198
760,886447633,41.759789,-83.351944,-152.631027
761,886464300,46.935406,-84.578018,-160.881714
762,886480967,41.119980,-86.717476,-157.399231
763,886497634,0.325424,-87.677124,-118.395088
764,886514301,-25.030327,-86.573265,-94.501320
765,886530968,-39.756901,-84.972275,-80.755508
766,886547635,-49.785172,-82.717941,-70.792191
767,886564302,-52.362240,-79.609825,-67.094429
768,886580969,-52.410927,-75.388992,-65.290977
769,886597636,-53.271732,-69.694832,-62.386082
770,886614303,-53.374447,-63.475441,-59.375950
771,886630970,-52.030598,-57.281078,-56.511044
772,886647637,-49.001118,-51.963482,-54.249386
773,886664304,-45.300430,-48.073479,-51.812351
774,886680971,-41.764263,-45.793083,-48.208717
775,886697638,-38.129620,-45.595161,-43.847286
776,886714305,-34.880581,-47.508419,-38.626270
777,886730972,-32.874561,-51.599277,-32.314713
778,886747639,-34.171112,-56.633831,-22.958450
779,886764306,-42.282494,-61.307480,-6.689033
780,886780973,-58.381874,-63.588871,17.587774
781,886797640,-76.181839,-61.506443,44.006405
782,886814307,-88.390800,-55.873795,64.787346
783,886830974,-94.831779,-49.790089,78.913681
784,886847641,-98.516495,-44.807259,88.549698
785,886864308,-100.997345,-41.228294,95.067101
786,886880975,-103.203735,-39.619141,99.471733
787,886897642,-106.244537,-39.940002,102.875977
788,886914309,-110.457031,-41.957081,105.695930
789,886930976,-116.189827,-45.322643,108.064224
790,886947643,-124.292557,-49.877216,110.879639
791,886964310,-136.438553,-55.460888,115.497108
792,886980977,-154.108536,-60.906353,123.868736
793,886997644,-174.913406,-64.713005,135.021576
794,887014311,164.784851,-67.294716,145.759766
795,887030978,145.915451,-69.969582,154.954620
796,887047645,128.021591,-73.015991,164.536819
797,887064312,109.921394,-76.413933,175.993393
798,887080979,89.367409,-80.204979,-168.199875
799,887097646,57.906849,-82.976807,-139.111893
800,887114313,17.491167,-82.931396,-98.888626
801,887130980,-8.313256,-80.340508,-71.755836
802,887147647,-20.543228,-76.631592,-57.314571
803,887164314,-25.888754,-73.255318,-49.666519
804,887180981,-30.326227,-71.176842,-43.236267
805,887197648,-36.842682,-70.041359,-34.201420
806,887214315,-44.377380,-69.400932,-23.373610
807,887230982,-51.942898,-68.862244,-12.230365
808,887247649,-57.372440,-68.606697,-2.986265
809,887264316,-60.623238,-68.836891,4.634335
810,887280983,-63.290630,-68.936371,12.146822
811,887297650,-65.187630,-68.996246,18.591909
812,887314317,-65.960022,-69.277534,24.001701
813,887330984,-66.340279,-69.563972,29.215963
814,887347651,-66.228600,-69.681389,33.944649
815,887364318,-65.851982,-69.622177,38.090179
816,887380985,-65.220680,-69.470909,41.449432
817,887397652,-64.013878,-69.506844,42.882000
818,887414319,-63.137470,-69.968536,42.786961
819,887430986,-62.567356,-70.727768,41.268139
820,887447653,-62.426208,-72.183434,38.986698
821,887464320,-63.176369,-73.996765,36.960007
822,887480987,-64.757370,-75.815117,35.949375
823,887497654,-62.352116,-77.838531,31.146395
824,887514321,-60.615417,-78.882790,27.041044
825,887530988,-61.817066,-79.713654,25.784782
826,887547655,-66.704636,-80.973373,29.353794
827,887564322,-68.282791,-82.266045,29.701300
828,887580989,-74.792076,-82.737770,35.161690
829,887597656,-75.921944,-83.980179,35.961269
830,887614323,-82.105171,-84.795013,42.776257
831,887630990,-90.083382,-85.590874,52.026890
832,887647657,-101.627762,-85.745598,65.516327
833,887664324,-109.029800,-85.114410,74.861641
834,887680991,-111.137444,-85.193680,79.068840
835,887697658,-112.884743,-85.529457,83.068024
836,887714325,-112.881363,-85.907242,84.745049
837,887730992,-121.761909,-87.198654,95.515724
838,887747659,-150.426346,-88.775070,126.019516
839,887764326,141.237701,-87.407310,-162.584015
840,887780993,125.607040,-85.571548,-145.261185
841,887797660,119.782616,-84.407074,-138.082642
842,887814327,119.774689,-83.751511,-136.741943
843,887830994,125.250946,-83.430519,-140.782379
844,887847661,135.713150,-82.787491,-148.988693
845,887864328,150.937729,-82.871841,-160.640701
846,887880995,-155.809952,-85.268158,153.924210
847,887897662,-79.631493,-82.947762,87.949776
848,887914329,-46.356979,-77.117836,65.635368
849,887930996,-30.333963,-71.697433,59.731815
850,887947663,-28.868055,-72.456261,61.504494
851,887964330,-31.040594,-75.776810,65.004143
852,887980997,-32.559124,-78.097145,70.243095
853,887997664,-35.373207,-78.731468,80.088028
854,888014331,-38.071964,-79.450737,90.569740
855,888030998,-40.313614,-80.579201,101.717941
856,888047665,-41.480209,-82.226860,113.795288
857,888064332,-37.115242,-84.014313,119.968681
858,888080999,-33.302952,-85.359276,126.352631
859,888097666,-38.201031,-85.237785,139.447281
860,888114333,-39.487419,-84.224747,146.025375
861,888131000,-38.998367,-82.910416,150.165146
862,888147667,-38.190098,-81.791679,153.595551
863,888164334,-37.565979,-80.735413,157.547211
864,888181001,-37.873940,-79.731438,163.039520
865,888197668,-30.400612,-79.958939,160.391479
866,888214335,-19.182474,-80.963928,154.081161
867,888231002,-10.483779,-81.551666,150.951111
868,888247669,-4.591526,-81.770134,150.873108
869,888264336,-6.396066,-82.683807,156.878998
870,888281003,-17.631283,-83.766090,169.605438
871,888297670,-23.321356,-84.525330,176.642746
872,888314337,-17.063007,-85.528542,172.494293
873,888331004,-16.322289,-86.544868,174.157059
874,888347671,-13.000720,-87.074440,172.854279
875,888364338,-7.642446,-86.878769,170.981583
876,888381005,31.684483,-87.562088,137.171219
877,888397672,111.904137,-86.217270,63.876884
878,888414339,132.169205,-83.915695,49.966335
879,888431006,146.238495,-80.967476,42.323486
880,888447673,165.651276,-77.248878,29.862360
881,888464340,-177.911407,-72.978165,21.287294
882,888481007,-160.459000,-67.586685,17.991207
883,888497674,-144.016388,-64.307556,15.034853
884,888514341,-135.586853,-66.541328,9.416985
885,888531008,-126.193665,-68.281906,2.265768
886,888547675,-113.871513,-69.651833,-7.181140
887,888564342,-101.214874,-70.422386,-15.841155
888,888581009,-86.236641,-70.743652,-25.118183
889,888597676,-72.704071,-70.585800,-32.333916
890,888614343,-65.321884,-70.745956,-34.417999
891,888631010,-62.144417,-71.158806,-33.240997
892,888647677,-58.844875,-71.321732,-32.284912
893,888664344,-52.972019,-71.719154,-32.914799
894,888681011,-47.096352,-73.773514,-33.089596
895,888697678,-41.828495,-76.547188,-32.705780
896,888714345,-35.696236,-81.578560,-31.493944
897,888731012,-52.985172,-87.686325,-4.849435
898,888747679,-167.885956,-85.336754,123.401428
899,888764346,-154.776871,-80.855057,128.445724
900,888781013,-135.647186,-77.850822,121.518707
901,888797680,-132.426559,-78.441284,120.559326
902,888814347,-140.677139,-79.873291,131.063904
903,888831014,-153.345215,-80.773232,145.935791
904,888847681,-164.410614,-81.196831,159.334747
905,888864348,-173.869385,-81.582779,170.992157
906,888881015,-176.521484,-82.025162,175.674042
907,888897682,-164.779083,-83.580238,166.369354
908,888914349,-136.458527,-85.613007,141.243149
909,888931016,-92.644783,-85.745918,105.141518
910,888947683,-68.357918,-84.231056,96.116058
911,888964350,-56.903080,-84.705238,99.811821
912,888981017,-73.322365,-85.425522,125.607574
913,888997684,-90.378128,-85.426033,148.681854
914,889014351,-79.191666,-85.109352,140.650726
915,889031018,-72.017807,-84.442192,135.631073
916,889047685,-70.411018,-83.676468,136.612228
917,889064352,-83.128517,-83.391937,152.988037
918,889081019,-98.764130,-83.148949,172.037338
919,889097686,-119.313339,-81.666290,-164.587891
920,889114353,-136.218399,-78.512405,-144.258789
921,889131020,-144.985703,-75.442093,-132.589859
922,889147687,-147.651703,-73.728195,-128.793076
923,889164354,-141.135956,-74.317261,-130.688095
924,889181021,-133.764038,-74.894012,-130.048126
925,889197688,-125.197723,-75.144424,-129.454880
926,889214355,-118.423431,-75.519913,-127.812363
927,889231022,-113.910423,-75.200203,-123.772591
928,889247689,-114.164169,-74.099693,-115.918175
929,889264356,-115.414162,-72.972488,-108.709396
930,889281023,-116.898743,-71.917404,-101.015892
931,889297690,-118.663994,-71.094673,-93.524925
932,889314357,-121.232468,-70.290054,-86.491264
933,889331024,-124.090485,-69.343193,-80.680923
934,889347691,-126.404182,-67.854004,-76.455315
935,889364358,-127.219894,-65.978966,-74.597931
936,889381025,-129.093246,-63.932873,-71.251831
937,889397692,-130.150696,-63.731388,-67.572319
938,889414359,-130.497528,-64.003510,-63.726532
939,889431026,-134.539948,-65.160408,-55.420570
940,889447693,-136.325104,-65.396172,-48.490627
941,889464360,-135.058472,-65.916931,-44.502895
942,889481027,-134.076111,-66.409752,-41.056828
943,889497694,-131.954666,-67.288017,-39.129059
944,889514361,-128.180603,-68.413872,-38.905533
945,889531028,-125.971199,-68.778336,-37.839516
946,889547695,-128.139954,-67.944206,-29.975550
947,889564362,-128.708221,-66.492958,-22.230200
948,889581029,-124.963028,-66.550514,-19.498938
949,889597696,-122.505974,-66.826485,-17.511997
950,889614363,-117.524551,-67.949898,-20.112953
951,889631030,-109.775414,-69.854370,-24.585739
952,889647697,-103.523529,-71.579338,-24.476963
953,889664364,-99.007103,-72.491516,-18.855352
954,889681031,-97.997887,-74.091949,-8.923523
955,889697698,-102.422005,-75.122665,4.958659
956,889714365,-107.496552,-75.320717,17.617720
957,889731032,-108.673088,-75.673851,24.638884
958,889747699,-104.631737,-76.812309,26.454361
959,889764366,-94.402061,-78.021416,22.889757
960,889781033,-89.244591,-78.888962,24.945084
961,889797700,-92.596092,-79.717133,35.791901
962,889814367,-99.533287,-80.164749,50.470024
963,889831034,-110.304825,-79.537102,69.782608
964,889847701,-119.815605,-76.656204,89.515541
965,889864368,-120.967133,-74.434952,98.046646
966,889881035,-119.453522,-75.039238,99.518272
967,889897702,-114.588791,-76.279709,96.833557
968,889914369,-110.581093,-77.781425,96.211311
969,889931036,-106.722946,-79.666862,95.790054
970,889947703,-98.566368,-80.441505,91.234627
971,889964370,-87.193245,-80.478020,84.594185
972,889981037,-75.463905,-79.986237,78.075493
973,889997704,-67.370087,-80.068413,75.628059
974,890014371,-55.745575,-81.079872,71.295288
975,890031038,-44.063641,-82.168045,68.618294
976,890047705,-44.554459,-85.552475,79.088165
977,890064372,-81.766266,-88.367577,124.863808
978,890081039,-147.467331,-87.684975,-164.321823
979,890097706,-141.568405,-87.246506,-167.744797
980,890114373,-129.688156,-86.988708,-177.094727
981,890131040,-128.239548,-86.637863,-174.699799
982,890147707,-149.988190,-85.460243,-151.131195
983,890164374,-163.289993,-83.662590,-135.771698
984,890181041,-168.373032,-81.696289,-128.605881
985,890197708,-170.198242,-80.282097,-125.060043
986,890214375,-160.254379,-80.478004,-130.938690
987,890231042,-146.389481,-81.711372,-138.688431
988,890247709,-123.468842,-83.070015,-154.922455
989,890264376,-95.227837,-83.227669,-175.611664
990,890281043,-71.348053,-82.487076,168.683685
991,890297710,-48.295845,-81.462044,153.933456
992,890314377,-26.723116,-79.922295,140.876785
993,890331044,-10.303435,-76.971230,133.301682
994,890347711,0.523137,-74.195496,131.131500
995,890364378,6.023999,-72.752571,132.361603
996,890381045,9.183851,-72.152641,135.470016
997,890397712,11.376553,-72.290062,138.843384
998,890414379,12.511994,-73.525475,141.888687
999,890431046,12.920824,-75.170387,144.897156
1000,890447713,10.803311,-76.572578,150.247147
1001,890464380,6.302064,-78.274681,157.837967
1002,890481047,-1.807788,-80.110779,169.221024
1003,890497714,-11.198968,-81.705994,-177.280075
1004,890514381,-13.736637,-83.526039,-169.719131
1005,890531048,8.491383,-85.143929,173.393082
1006,890547715,47.120190,-84.858521,138.952637
1007,890564382,73.657707,-82.732719,115.494308
1008,890581049,89.047356,-80.747429,101.689293
1009,890597716,96.976257,-80.598969,94.804291
1010,890614383,105.689987,-80.269241,86.795738
1011,890631050,117.668793,-79.815750,75.272118
1012,890647717,124.069527,-79.795753,69.300751
1013,890664384,124.313705,-80.101929,68.852531
1014,890681051,120.912849,-80.323944,72.173607
1015,890697718,118.777412,-80.503883,75.259232
1016,890714385,123.754684,-80.719711,73.314888
1017,890731052,132.031631,-81.027084,69.589920
1018,890747719,143.430908,-81.599106,64.189392
1019,890764386,157.658768,-82.326729,57.280586
1020,890781053,175.851303,-82.862518,47.252758
1021,890797720,-163.814911,-82.546234,35.578762
1022,890814387,-149.244629,-82.188980,28.619194
1023,890831054,-141.877914,-82.403580,28.995178
1024,890847721,-138.024734,-83.475983,32.593357
1025,890864388,-130.430511,-85.132767,31.593054
1026,890881055,-100.890900,-87.891418,9.075412
1027,890897722,-21.652369,-88.196808,-64.297226
1028,890914389,2.590165,-87.995140,-83.677940
1029,890931056,65.159706,-87.649734,-140.984467
1030,890947723,109.533531,-85.692429,179.855530
1031,890964390,124.749893,-84.256355,169.218811
1032,890981057,124.449684,-84.277351,173.182190
1033,890997724,115.178162,-84.113007,-174.062012
1034,891014391,108.041756,-84.018799,-163.104996
1035,891031058,109.439537,-83.845917,-160.624527
1036,891047725,107.336792,-83.549126,-155.453537
1037,891064392,98.373390,-83.278656,-145.427277
1038,891081059,86.537033,-82.519478,-133.394516
1039,891097726,74.206284,-82.061722,-119.640137
1040,891114393,66.998001,-82.229790,-107.915840
1041,891131060,62.555038,-82.323662,-96.992500
1042,891147727,62.400848,-82.209274,-89.833984
1043,891164394,71.045036,-82.869141,-91.591141
1044,891181061,72.158569,-83.117157,-86.770226
1045,891197728,70.407677,-82.982086,-80.195251
1046,891214395,65.771782,-82.639130,-73.357391
1047,891231062,62.664658,-82.781296,-69.104935
1048,891247729,59.846302,-83.184624,-65.583069
1049,891264396,59.631615,-83.815147,-65.058014
1050,891281063,68.241219,-84.143623,-72.598190
1051,891297730,70.741814,-83.452789,-73.991821
1052,891314397,72.983437,-82.255600,-75.178650
1053,891331064,72.417480,-81.203644,-73.632545
1054,891347731,68.827614,-80.143364,-68.680305
1055,891364398,61.196003,-78.813080,-59.142273
1056,891381065,52.046734,-77.067749,-47.628067
1057,891397732,42.725487,-74.111137,-33.687614
1058,891414399,38.906010,-70.845825,-24.689135
1059,891431066,39.031818,-68.917351,-20.946264
1060,891447733,40.565754,-68.379036,-19.293093
1061,891464400,42.499008,-68.208031,-16.914907
1062,891481067,45.413013,-68.545891,-13.555565
1063,891497734,50.294735,-69.880615,-10.365903
1064,891514401,55.758633,-71.445953,-7.432690
1065,891531068,61.107567,-72.615364,-3.860458
1066,891547735,66.603760,-73.954857,-1.393555
1067,891564402,70.255058,-75.170853,1.259290
1068,891581069,70.392830,-76.061272,6.565225
1069,891597736,66.261604,-76.332634,15.911768
1070,891614403,58.904400,-75.748558,29.118996
1071,891631070,52.154457,-74.715286,43.093784
1072,891647737,45.584949,-72.959023,58.141228
1073,891664404,39.169983,-70.200554,73.537331
1074,891681071,34.842163,-67.244431,85.114220
1075,891697738,32.888069,-64.789795,92.258972
1076,891714405,33.177746,-62.821751,96.378021
1077,891731072,34.322128,-61.407177,98.929207
1078,891747739,36.092907,-60.986691,100.458412
1079,891764406,38.241997,-61.411476,101.946609
1080,891781073,41.422623,-62.259811,103.017220
1081,891797740,45.040596,-63.423737,103.613892
1082,891814407,47.778801,-64.566513,104.542908
1083,891831074,49.330265,-65.425591,106.400406
1084,891847741,52.114574,-65.704094,107.434387
1085,891864408,55.485939,-66.117714,108.300964
1086,891881075,57.372475,-66.627312,110.610886
1087,891897742,57.286274,-67.133827,114.016968
1088,891914409,55.874027,-67.859673,117.651810
1089,891931076,54.941563,-68.664490,120.486862
1090,891947743,54.487648,-69.133759,122.452316
1091,891964410,54.029114,-69.431274,123.768097
1092,891981077,54.387550,-69.434830,123.515587
1093,891997744,55.909691,-68.942062,121.544655
1094,892014411,55.145428,-68.591980,121.419044
1095,892031078,53.596397,-68.473373,122.056793
1096,892047745,51.999531,-68.668488,122.947136
1097,892064412,51.421211,-68.800941,123.121239
1098,892081079,50.693966,-68.630524,123.697525
1099,892097746,48.809334,-68.024246,125.710777
1100,892114413,46.637470,-67.133171,128.142120
1101,892131080,44.766083,-66.867546,129.387054
1102,892147747,45.876427,-66.996437,126.833679
1103,892164414,47.135120,-66.616943,124.800659
1104,892181081,45.520489,-66.687210,125.980736
1105,892197748,44.993492,-66.704102,126.151466
1106,892214415,44.549774,-66.669891,125.918579
1107,892231082,41.947311,-66.549690,127.925430
1108,892247749,41.854633,-65.984718,128.335327
1109,892264416,42.344254,-65.123817,127.957199
1110,892281083,43.912872,-63.822620,126.329735
1111,892297750,46.069157,-62.291714,124.265442
1112,892314417,48.108368,-60.682510,122.526848
1113,892331084,50.370327,-58.853352,120.483200
1114,892347751,52.701447,-57.498062,118.536606
1115,892364418,54.244213,-55.979683,116.910683
1116,892381085,54.539730,-54.267525,116.027596
1117,892397752,54.418182,-52.657703,115.669350
1118,892414419,54.220226,-51.368534,115.632195
1119,892431086,53.452332,-50.353325,116.166344
1120,892447753,51.408825,-49.627560,117.664330
1121,892464420,49.803127,-49.569965,118.641273
1122,892481087,48.665497,-49.641289,119.058296
1123,892497754,47.933140,-49.642361,119.227936
1124,892514421,47.349934,-49.585182,119.369209
1125,892531088,46.791473,-49.510281,119.526115
1126,892547755,46.358589,-49.531418,119.660698
1127,892564422,46.011978,-49.669033,119.769402
1128,892581089,46.077324,-49.765121,119.396774
1129,892597756,46.174145,-49.826767,119.078308
1130,892614423,46.523296,-49.732388,118.563469
1131,892631090,47.049103,-49.556114,117.928024
1132,892647757,47.175186,-49.684956,117.726837
1133,892664424,47.048325,-49.769176,117.682426
1134,892681091,46.678345,-49.603119,117.827202
1135,892697758,45.929867,-49.507179,118.394073
1136,892714425,44.752792,-49.776276,119.475716
1137,892731092,42.879700,-50.373924,121.382820
1138,892747759,39.903713,-50.999840,124.545151
1139,892764426,36.887863,-51.129360,128.322708
1140,892781093,34.770981,-50.445911,131.407791
1141,892797760,32.736969,-49.584522,134.614044
1142,892814427,31.541975,-49.448277,137.229004
1143,892831094,30.888950,-49.140446,138.891571
1144,892847761,29.565273,-48.404701,140.152496
1145,892864428,28.358433,-47.458736,140.841171
1146,892881095,27.637077,-46.213001,141.035980
1147,892897762,27.141769,-44.692966,140.736969
1148,892914429,26.154816,-42.204250,140.160217
1149,892931096,24.681726,-38.571285,139.687790
1150,892947763,23.116776,-34.153297,139.503799
1151,892964430,21.648203,-29.078854,139.547699
1152,892981097,20.165571,-23.652611,139.864319
1153,892997764,18.434975,-18.331827,140.768860
1154,893014431,17.397753,-14.858059,142.268753
1155,893031098,17.355907,-13.393445,144.120743
1156,893047765,17.998957,-13.105864,145.739456
1157,893064432,18.789095,-13.277503,146.777023
1158,893081099,19.505121,-13.223204,147.100372
1159,893097766,19.944279,-13.191021,147.079269
1160,893114433,20.173157,-13.092483,147.138870
1161,893131100,20.384914,-12.952585,147.389084
1162,893147767,20.455589,-12.756016,147.993195
1163,893164434,20.755081,-12.174820,148.926239
1164,893181101,21.134542,-11.305957,149.737839
1165,893197768,21.463057,-10.518540,150.352844
1166,893214435,21.648050,-10.139132,150.908524
1167,893231102,21.268545,-10.172674,151.088257
1168,893247769,21.132694,-10.806477,150.886551
1169,893264436,21.163645,-11.338330,150.336151
1170,893281103,21.087631,-11.958574,149.507263
1171,893297770,21.558411,-12.286868,148.833206
1172,893314437,21.521116,-12.053649,148.394897
1173,893331104,21.391369,-10.092268,147.874680
1174,893347771,20.084307,-5.650374,148.136444
1175,893364438,17.502151,1.095389,148.752197
1176,893381105,15.142005,8.171170,149.313873
1177,893397772,15.373607,10.057993,148.639160
1178,893414439,16.265339,10.941495,148.130981
1179,893431106,17.294449,11.525419,147.731979
1180,893447773,17.970829,11.919241,147.180145
1181,893464440,18.154743,11.848423,146.318405
1182,893481107,18.206137,11.920993,145.608719
1183,893497774,18.198566,11.860489,144.990952
1184,893514441,20.275028,11.256081,145.265457
1185,893531108,24.475599,10.508759,145.946228
1186,893547775,26.458460,10.599524,146.888596
1187,893564442,26.741093,10.355228,147.297729
1188,893581109,25.619726,10.109027,146.628830
1189,893597776,24.783260,10.194884,146.144852
1190,893614443,24.262453,10.316903,145.944855
1191,893631110,23.686184,10.357759,145.266617
1192,893647777,23.076765,10.435143,144.306702
1193,893664444,22.357908,10.692492,143.218597
1194,893681111,21.375992,11.193468,141.969833
1195,893697778,20.284695,11.841637,140.511795
1196,893714445,19.228809,12.539252,138.813293
1197,893731112,18.139589,13.193883,136.760666
1198,893747779,16.868723,13.882298,134.042908
1199,893764446,15.419557,14.708097,130.792191
1200,893781113,14.299398,15.150664,127.879791
1201,893797780,13.359402,15.361835,125.226151
1202,893814447,12.280221,15.509695,122.484894
1203,893831114,11.152951,15.510704,119.720787
1204,893847781,9.965774,15.578447,117.025482
1205,893864448,8.517530,15.688439,114.075134
1206,893881115,6.884100,15.761068,110.806976
1207,893897782,5.528127,15.642008,107.998055
1208,893914449,4.569018,15.358620,105.629684
1209,893931116,3.746684,14.925370,103.412727
1210,893947783,2.899001,14.253636,101.216080
1211,893964450,2.004869,13.563669,99.030556
1212,893981117,1.031048,12.695098,96.956680
1213,893997784,0.064583,11.762671,95.090691
1214,894014451,-0.594623,10.867124,93.461678
1215,894031118,-1.002511,9.824486,91.885727
1216,894047785,-1.276899,8.723142,90.316940
1217,894064452,-1.573617,7.691637,88.782059
1218,894081119,-1.882683,6.609318,87.312599
1219,894097786,-2.117697,5.471437,85.727913
1220,894114453,-2.403931,4.283164,83.899590
1221,894131120,-2.835574,3.386490,81.918289
1222,894147787,-3.243433,2.886861,79.884254
1223,894164454,-3.621940,2.769972,77.841721
1224,894181121,-3.884435,2.882524,76.120522
1225,894197788,-4.064353,2.922996,74.619888
1226,894214455,-4.174668,2.865129,73.610168
1227,894231122,-4.837969,2.804741,72.397026
1228,894247789,-6.094151,3.213392,71.045380
1229,894264456,-7.215268,3.807722,69.908234
1230,894281123,-8.032604,4.434655,68.769989
1231,894297790,-8.334801,4.771614,67.660072
1232,894314457,-8.139964,5.021245,66.742584
1233,894331124,-7.725956,5.175897,65.713531
1234,894347791,-7.344986,5.206216,64.757545
1235,894364458,-7.209780,5.030129,63.917233
1236,894381125,-7.502982,4.902882,63.453381
1237,894397792,-8.028148,4.727674,63.328693
1238,894414459,-8.583009,4.614254,63.529613
1239,894431126,-8.017784,2.872733,63.703182
1240,894447793,-8.427255,2.937989,63.545437
1241,894464460,-8.320401,2.273067,63.311230
1242,894481127,-8.195735,1.741317,63.249744
1243,894497794,-8.346818,1.107525,63.229362
1244,894514461,-8.936293,0.426774,63.220730
1245,894531128,-9.879296,0.159329,63.352554
1246,894547795,-10.511481,0.269149,63.699238
1247,894564462,-10.497536,0.525800,64.414261
1248,894581129,-10.660398,0.855160,64.813354
1249,894597796,-11.408770,1.181592,64.905403
1250,894614463,-12.575310,0.779808,64.450569
1251,894631130,-13.757013,0.168973,64.461472
1252,894647797,-14.701764,-0.509293,64.710358
1253,894664464,-15.237003,-0.747004,65.115997
1254,894681131,-15.453770,-0.506174,65.437599
1255,894697798,-15.575591,-0.417921,65.959435
1256,894714465,-15.475021,-0.889450,66.186737
1257,894731132,-15.012584,-1.463171,66.293152
1258,894747799,-14.075659,-2.361465,66.330246
1259,894764466,-13.311395,-2.791850,66.351387
1260,894781133,-12.167293,-3.245132,66.225746
1261,894797800,-10.733903,-3.493819,66.044052
1262,894814467,-9.237387,-3.766223,65.775734
1263,894831134,-7.724331,-4.121173,65.396843
1264,894847801,-6.059161,-4.408093,64.598572
1265,894864468,-4.533520,-4.933322,63.234234
1266,894881135,-3.240032,-5.296644,61.830566
1267,894897802,-2.143724,-6.325471,60.569736
1268,894914469,-1.173186,-8.113111,59.556873
1269,894931136,-0.424037,-10.268717,58.695961
1270,894947803,0.273788,-12.315950,57.995663
1271,894964470,0.587666,-13.948397,57.505112
1272,894981137,0.994751,-15.185539,56.676159
1273,894997804,1.811519,-15.899227,55.574955
1274,895014471,2.993710,-16.298567,54.636295
1275,895031138,4.499039,-16.249865,53.929443
1276,895047805,5.990584,-15.504663,53.384281
1277,895064472,7.367616,-14.827258,52.803177
1278,895081139,8.854477,-14.457161,52.278999
1279,895097806,10.233161,-14.286641,51.858749
1280,895114473,11.671044,-14.237638,51.523190
1281,895131140,13.020065,-13.848289,51.211037
1282,895147807,14.306692,-13.104368,51.055035
1283,895164474,15.081969,-13.040077,51.026993
1284,895181141,15.439998,-13.555359,50.997448
1285,895197808,16.194464,-14.981612,50.689327
1286,895214475,17.565050,-15.945152,50.285767
1287,895231142,19.488493,-16.770468,50.138687
1288,895247809,20.973623,-18.260742,49.986027
1289,895264476,21.628046,-20.148289,49.867130
1290,895281143,21.936296,-22.331059,49.575020
1291,895297810,22.951622,-24.672024,49.022987
1292,895314477,24.024921,-26.604639,48.555134
1293,895331144,24.641497,-27.979219,48.347294
1294,895347811,25.004171,-28.811855,48.304699
1295,895364478,25.014557,-29.230989,48.481174
1296,895381145,24.722534,-29.466341,48.692783
1297,895397812,24.126362,-29.632076,48.872158
1298,895414479,23.450855,-29.971687,48.887585
1299,895431146,23.218832,-30.518129,48.846264
1300,895447813,22.862038,-29.131102,50.150635
1301,895464480,22.428059,-28.479687,51.134201
1302,895481147,22.068926,-28.743483,51.539925
1303,895497814,21.660908,-29.068569,51.794830
1304,895514481,21.155914,-29.462469,51.955284
1305,895531148,20.672253,-29.951118,52.248592
1306,895547815,20.347281,-30.596693,52.564758
1307,895564482,20.181593,-31.479834,52.890129
1308,895581149,20.018742,-32.788998,53.031513
1309,895597816,19.654375,-34.565418,53.114555
1310,895614483,19.491377,-36.744705,53.251495
1311,895631150,19.054157,-38.613461,53.268085
1312,895647817,18.563826,-40.103382,53.150719
1313,895664484,17.824993,-41.598606,53.564682
1314,895681151,16.663086,-43.400661,55.181309
1315,895697818,15.239645,-45.601318,56.286884
1316,895714485,14.037210,-47.956783,56.486454
1317,895731152,13.271260,-50.405548,56.514194
1318,895747819,12.424522,-52.545029,56.481678
1319,895764486,12.032732,-54.237831,55.904140
1320,895781153,12.095864,-55.693810,54.817543
1321,895797820,12.374496,-57.041237,53.778439
1322,895814487,12.390423,-58.234821,53.078941
1323,895831154,12.138974,-59.236141,52.577190
1324,895847821,11.409744,-60.119423,52.497688
1325,895864488,10.174599,-60.679420,52.997707
1326,895881155,8.632013,-60.866699,53.867798
1327,895897822,7.091067,-60.731773,54.876415
1328,895914489,6.110025,-60.478039,55.417431
1329,895931156,5.350848,-60.317429,55.718758
1330,895947823,4.411434,-60.078304,56.216244
1331,895964490,2.793290,-59.927780,57.346569
1332,895981157,0.389616,-59.939610,59.308582
1333,895997824,-2.407569,-59.945366,61.716175
1334,896014491,-5.548538,-59.804268,64.399399
1335,896031158,-9.088513,-59.498344,67.307648
1336,896047825,-11.037783,-58.622784,68.883606
1337,896064492,-10.646972,-57.120243,68.565826
1338,896081159,-11.397342,-55.981621,68.536789
1339,896097826,-12.386474,-55.454239,68.439964
1340,896114493,-13.312132,-55.251587,68.331726
1341,896131160,-14.188787,-55.433693,68.328339
1342,896147827,-15.119297,-55.823357,68.458885
1343,896164494,-15.653569,-56.115704,68.245430
1344,896181161,-15.894904,-56.138042,67.835968
1345,896197828,-16.174911,-56.191135,67.537468
1346,896214495,-16.360710,-56.169647,67.140633
1347,896231162,-16.352894,-56.004166,66.546768
1348,896247829,-16.395845,-55.850483,66.105644
1349,896264496,-16.401592,-55.951546,65.636421
1350,896281163,-16.434649,-56.224529,65.143982
1351,896297830,-16.332066,-56.525883,64.756508
1352,896314497,-15.524262,-56.962616,64.092506
1353,896331164,-14.914195,-57.322426,63.603325
1354,896347831,-15.043420,-57.658333,63.584923
1355,896364498,-15.224736,-57.899193,63.606522
1356,896381165,-15.459793,-57.992191,63.576073
1357,896397832,-15.779803,-57.944267,63.628418
1358,896414499,-15.605144,-57.759682,63.479778
1359,896431166,-15.570997,-57.756054,63.509079
1360,896447833,-15.792952,-57.874603,63.870167
1361,896464500,-16.365124,-58.051758,64.640648
1362,896481167,-17.272827,-58.244946,65.573456
1363,896497834,-18.182892,-58.452621,66.427246
1364,896514501,-15.698333,-58.998970,63.979053
1365,896531168,-13.609051,-59.232876,62.130222
1366,896547835,-12.339298,-59.439770,61.130154
1367,896564502,-11.628108,-59.735489,60.555153
1368,896581169,-11.689917,-60.042439,60.774162
1369,896597836,-12.127464,-60.157063,61.561562
1370,896614503,-12.174606,-60.278667,61.790981
1371,896631170,-11.624080,-60.395428,61.338223
1372,896647837,-10.629088,-60.465092,60.357616
1373,896664504,-9.455320,-60.480034,59.105724
1374,896681171,-8.215431,-60.478107,57.731560
1375,896697838,-7.052247,-60.447891,56.459644
1376,896714505,-6.005637,-60.291939,55.399220
1377,896731172,-5.342486,-59.968578,54.762001
1378,896747839,-5.109725,-59.522400,54.485729
1379,896764506,-5.087716,-59.048222,54.429413
1380,896781173,-4.143994,-59.574463,53.469673
1381,896797840,-2.761862,-60.486454,51.963139
1382,896814507,-1.060627,-61.620750,50.149067
1383,896831174,0.973873,-62.813255,48.079731
1384,896847841,3.279876,-63.807510,45.811501
1385,896864508,5.506445,-64.859825,43.528435
1386,896881175,8.190949,-66.025978,40.699001
1387,896897842,11.552009,-67.257278,37.189331
1388,896914509,16.056189,-68.475822,32.569202
1389,896931176,21.641445,-69.609413,26.937456
1390,896947843,28.122438,-70.554047,20.501120
1391,896964510,35.135197,-71.210739,13.653218
1392,896981177,41.567249,-71.594002,7.362736
1393,896997844,47.193703,-71.742317,1.775012
1394,897014511,52.127125,-71.740181,-3.117419
1395,897031178,56.420845,-71.642143,-7.337737
1396,897047845,60.484200,-71.364281,-11.259751
1397,897064512,63.895355,-71.033981,-14.493071
1398,897081179,66.648705,-70.698250,-17.071283
1399,897097846,68.597984,-70.438293,-18.911886
1400,897114513,69.808548,-70.236938,-20.122042
1401,897131180,70.766304,-69.946220,-21.152954
1402,897147847,71.633263,-69.633598,-22.105951
1403,897164514,72.528427,-69.341751,-23.042559
1404,897181181,73.363388,-69.078979,-23.879465
1405,897197848,74.193398,-68.754669,-24.654207
1406,897214515,75.017349,-68.354156,-25.370365
1407,897231182,75.649872,-67.953621,-25.846567
1408,897247849,75.959122,-67.605919,-25.984434
1409,897264516,76.130455,-67.218170,-25.943668
1410,897281183,76.368797,-66.707985,-25.924356
1411,897297850,76.613960,-66.090469,-25.864851
1412,897314517,76.842499,-65.434326,-25.727016
1413,897331184,76.909775,-64.811226,-25.463396
1414,897347851,77.088806,-63.856361,-25.341873
1415,897364518,77.408226,-61.961987,-25.682089
1416,897381185,76.580536,-59.488995,-25.173826
1417,897397852,75.536171,-57.793625,-24.469997
1418,897414519,74.308388,-56.766644,-23.356215
1419,897431186,73.803123,-56.091835,-22.838593
1420,897447853,74.690956,-55.442120,-23.255230
1421,897464520,76.600945,-54.840492,-24.285471
1422,897481187,78.979782,-54.158741,-25.639280
1423,897497854,82.184761,-53.213451,-27.472504
1424,897514521,86.663513,-51.693851,-29.910219
1425,897531188,92.112350,-49.711193,-32.575657
1426,897547855,98.213150,-47.190784,-35.419678
1427,897564522,104.126617,-44.600658,-38.080677
1428,897581189,109.538300,-42.078999,-40.402031
1429,897597856,114.405968,-39.760078,-42.286633
1430,897614523,118.790047,-37.619171,-43.858337
1431,897631190,122.761665,-35.436501,-45.116276
1432,897647857,126.116753,-33.601753,-46.044544
1433,897664524,128.761642,-32.265961,-46.746864
1434,897681191,130.802383,-31.315891,-47.278606
1435,897697858,132.407166,-30.582773,-47.696743
1436,897714525,133.740250,-30.216358,-48.233135
1437,897731192,134.770706,-30.131372,-48.829330
1438,897747859,135.290253,-30.182049,-49.368664
1439,897764526,135.097702,-30.084942,-49.541542
1440,897781193,134.811829,-30.123806,-49.767025
1441,897797860,134.364395,-30.430439,-49.940659
1442,897814527,133.935852,-30.723732,-50.090294
1443,897831194,133.740784,-30.712479,-50.094872
1444,897847861,133.794907,-30.489784,-49.862507
1445,897864528,133.899231,-30.157194,-49.370438
1446,897881195,133.885513,-30.016066,-48.737053
1447,897897862,133.801651,-30.184130,-48.140720
1448,897914529,133.651306,-30.448290,-47.509655
1449,897931196,133.434708,-30.929358,-46.958950
1450,897947863,133.231735,-31.535980,-46.505207
1451,897964530,133.102692,-32.020718,-46.038284
1452,897981197,133.074280,-32.285316,-45.544876
1453,897997864,133.106323,-32.407513,-45.090206
1454,898014531,133.154312,-32.453304,-44.669453
1455,898031198,133.203201,-32.483234,-44.279716
1456,898047865,133.225220,-32.476955,-43.852402
1457,898064532,133.227264,-32.463428,-43.383778
1458,898081199,133.219833,-32.456871,-42.907070
1459,898097866,133.193192,-32.431431,-42.410011
1460,898114533,133.180664,-32.481220,-41.922573
1461,898131200,133.213379,-32.510799,-41.404537
1462,898147867,133.233795,-32.489819,-40.807129
1463,898164534,133.226440,-32.494919,-40.160049
1464,898181201,133.168015,-32.600018,-39.499489
1465,898197868,133.097839,-32.786549,-38.856663
1466,898214535,133.059753,-32.973194,-38.239689
1467,898231202,133.045944,-33.149895,-37.658718
1468,898247869,133.059158,-33.355007,-37.147892
1469,898264536,133.098373,-33.526833,-36.649960
1470,898281203,133.161850,-33.737434,-36.180916
1471,898297870,133.249954,-34.013935,-35.764908
1472,898314537,133.332870,-34.327789,-35.348190
1473,898331204,133.415741,-34.626717,-34.920509
1474,898347871,133.510452,-34.905525,-34.529633
1475,898364538,133.581253,-35.160362,-34.180508
1476,898381205,133.621887,-35.458817,-33.905724
1477,898397872,133.649170,-35.812408,-33.682060
1478,898414539,133.662567,-36.164021,-33.470291
1479,898431206,133.663605,-36.482162,-33.286213
1480,898447873,133.658371,-36.788395,-33.172527
1481,898464540,133.648605,-36.972897,-33.070004
1482,898481207,133.686005,-37.065247,-33.010876
1483,898497874,133.763962,-37.171783,-33.018051
1484,898514541,133.825378,-37.290779,-33.039803
1485,898531208,133.843094,-37.323643,-33.016068
1486,898547875,133.862350,-37.310455,-33.006214
1487,898564542,133.888351,-37.251148,-33.001888
1488,898581209,133.893509,-37.202217,-33.017498
1489,898597876,133.889603,-37.191616,-33.074917
1490,898614543,133.897415,-37.235035,-33.134739
1491,898631210,133.914429,-37.268890,-33.153645
1492,898647877,133.988297,-37.357685,-33.237850
1493,898664544,134.092728,-37.426350,-33.310307
1494,898681211,134.185410,-37.454933,-33.364231
1495,898697878,134.288406,-37.577374,-33.533390
1496,898714545,134.355087,-37.676769,-33.696163
1497,898731212,134.422791,-37.747730,-33.882977
1498,898747879,134.511429,-37.811626,-34.083759
1499,898764546,134.585068,-37.852680,-34.247452
1500,898781213,134.649673,-37.878834,-34.408184
1501,898797880,134.658203,-37.865723,-34.528969
1502,898814547,134.601654,-37.858784,-34.647343
1503,898831214,134.502853,-37.875893,-34.755211
1504,898847881,134.374496,-37.856148,-34.781700
1505,898864548,134.235214,-37.844570,-34.774982
1506,898881215,134.064301,-37.866356,-34.748444
1507,898897882,133.876541,-37.861244,-34.685539
1508,898914549,133.694916,-37.843254,-34.634575
1509,898931216,133.531235,-37.852715,-34.622299
1510,898947883,133.379044,-37.829960,-34.595325
1511,898964550,133.255981,-37.778111,-34.544243
1512,898981217,133.125504,-37.723423,-34.450027
1513,898997884,132.995697,-37.666233,-34.335197
1514,899014551,132.901337,-37.616379,-34.237553
1515,899031218,132.813477,-37.578487,-34.140900
1516,899047885,132.720428,-37.542915,-34.022167
1517,899064552,132.633774,-37.569088,-33.919548