sep=,
DeviceTag:,Xsens DOT
FirmwareVersion:,2.1.0
AppVersion:,2022.0.0
SyncStatus:,Un-synced
OutputRate:,60Hz
FilterProfile:,Dynamic
Measurement Mode:,Sensor fusion Mode - Orientation(Euler)
StartTime: ,2022-08-09_13:54:51_184 EDT
© Xsens Technologies B. V. 2005-2022

PacketCounter,SampleTimeFine,Euler_X,Euler_Y,Euler_Z
1,916876618,-0.011624,-0.781176,-143.533920
2,916893285,0.003426,-0.781461,-143.576675
3,916909952,0.006065,-0.780913,-143.584091
4,916926619,0.012863,-0.781457,-143.576019
5,916943286,0.017804,-0.781088,-143.539795
6,916959953,0.020354,-0.781546,-143.534348
7,916976620,0.022433,-0.780102,-143.563019
8,916993287,0.021256,-0.780971,-143.571152
9,917009954,0.021494,-0.779964,-143.556366
10,917026621,0.020801,-0.781250,-143.542465
11,917043288,0.021161,-0.782284,-143.533173
12,917059955,0.018921,-0.783592,-143.515915
13,917076622,0.017313,-0.782747,-143.505280
14,917093289,0.017963,-0.782763,-143.517105
15,917109956,0.018503,-0.782323,-143.524200
16,917126623,0.019198,-0.781523,-143.520569
17,917143290,0.018334,-0.781523,-143.521408
18,917159957,0.019535,-0.780528,-143.547836
19,917176624,0.020289,-0.779973,-143.533752
20,917193291,0.020211,-0.779433,-143.531693
21,917209958,0.020923,-0.779364,-143.526520
22,917226625,0.021325,-0.779265,-143.511963
23,917243292,0.020790,-0.779436,-143.512680
24,917259959,0.020606,-0.780374,-143.513626
25,917276626,0.021428,-0.779775,-143.507263
26,917293293,0.020703,-0.779638,-143.507782
27,917309960,0.019815,-0.780327,-143.519394
28,917326627,0.019623,-0.780766,-143.519928
29,917343294,0.020791,-0.780078,-143.518921
30,917359961,0.019925,-0.780753,-143.517227
31,917376628,0.019775,-0.779804,-143.518402
32,917393295,0.020322,-0.779952,-143.524658
33,917409962,0.020567,-0.781204,-143.526001
34,917426629,0.019227,-0.781744,-143.522736
35,917443296,0.019057,-0.782756,-143.518799
36,917459963,0.019195,-0.783133,-143.524414
37,917476630,0.019262,-0.782690,-143.521439
38,917493297,0.018039,-0.782533,-143.520493
39,917509964,0.019038,-0.782802,-143.517334
40,917526631,0.018447,-0.783663,-143.517334
41,917543298,0.017540,-0.784131,-143.517532
42,917559965,0.015878,-0.785321,-143.510239
43,917576632,0.016063,-0.784713,-143.512115
44,917593299,0.014535,-0.784557,-143.515564
45,917609966,0.014604,-0.785035,-143.523270
46,917626633,0.014323,-0.784974,-143.523239
47,917643300,0.013197,-0.787341,-143.523193
48,917659967,0.012240,-0.788243,-143.508835
49,917676634,0.012112,-0.787838,-143.503845
50,917693301,0.010968,-0.787070,-143.499817
51,917709968,0.009893,-0.787089,-143.505112
52,917726635,0.010288,-0.786557,-143.502136
53,917743302,0.011496,-0.785268,-143.500153
54,917759969,0.012322,-0.785487,-143.499222
55,917776636,0.012471,-0.786455,-143.498901
56,917793303,0.013280,-0.786739,-143.498978
57,917809970,0.012388,-0.787475,-143.496262
58,917826637,0.013224,-0.787099,-143.494858
59,917843304,0.012163,-0.787942,-143.498581
60,917859971,0.010972,-0.788327,-143.498901
61,917876638,0.011870,-0.788282,-143.499634
62,917893305,0.011684,-0.788258,-143.495071
63,917909972,0.013146,-0.788011,-143.488998
64,917926639,0.013078,-0.788234,-143.489197
65,917943306,0.013771,-0.787817,-143.495148
66,917959973,0.013281,-0.786858,-143.482727
67,917976640,0.013739,-0.786845,-143.485840
68,917993307,0.013498,-0.786955,-143.494095
69,918009974,0.013767,-0.787302,-143.489166
70,918026641,0.013338,-0.787011,-143.489868
71,918043308,0.013585,-0.787957,-143.485413
72,918059975,0.013011,-0.788170,-143.474945
73,918076642,0.013096,-0.788242,-143.480774
74,918093309,0.014811,-0.787590,-143.495636
75,918109976,0.015445,-0.788182,-143.488739
76,918126643,0.016493,-0.787335,-143.487564
77,918143310,0.015858,-0.787639,-143.480026
78,918159977,0.014448,-0.787573,-143.480789
79,918176644,0.013894,-0.787660,-143.483536
80,918193311,0.014197,-0.787450,-143.478760
81,918209978,0.015734,-0.787189,-143.489151
82,918226645,0.016105,-0.787133,-143.489502
83,918243312,0.016113,-0.786985,-143.488663
84,918259979,0.017486,-0.787633,-143.486710
85,918276646,0.017047,-0.787211,-143.492233
86,918293313,0.017950,-0.788461,-143.501083
87,918309980,0.018255,-0.788022,-143.515762
88,918326647,0.017741,-0.788748,-143.514313
89,918343314,0.017951,-0.789929,-143.505524
90,918359981,0.017093,-0.791206,-143.507950
91,918376648,0.015640,-0.792139,-143.504578
92,918393315,0.013905,-0.793027,-143.511139
93,918409982,0.014808,-0.793339,-143.501266
94,918426649,0.015675,-0.794150,-143.498856
95,918443316,0.015878,-0.793722,-143.500183
96,918459983,0.015118,-0.792864,-143.498123
97,918476650,0.016545,-0.792846,-143.499237
98,918493317,0.017366,-0.793058,-143.500183
99,918509984,0.018651,-0.793720,-143.501099
100,918526651,0.019231,-0.793839,-143.512146
101,918543318,0.019773,-0.793364,-143.515945
102,918559985,0.018896,-0.794427,-143.507324
103,918576652,0.018015,-0.795047,-143.505066
104,918593319,0.018784,-0.794194,-143.514175
105,918609986,0.017831,-0.794229,-143.500259
106,918626653,0.018737,-0.793884,-143.504135
107,918643320,0.018108,-0.794154,-143.510422
108,918659987,0.017564,-0.793753,-143.517838
109,918676654,0.018290,-0.793703,-143.517776
110,918693321,0.020269,-0.793393,-143.509995
111,918709988,0.019850,-0.793790,-143.509735
112,918726655,0.019634,-0.793750,-143.511490
113,918743322,0.018292,-0.793471,-143.512146
114,918759989,-0.081021,-0.683209,-143.750671
115,918776656,-0.135507,-0.556814,-143.778091
116,918793323,-0.147103,-0.547343,-143.033508
117,918809990,-0.110056,-0.583219,-142.083939
118,918826657,-0.113182,-0.591245,-142.567780
119,918843324,-0.118641,-0.584257,-142.652802
120,918859991,-0.137574,-0.560959,-142.860626
121,918876658,-0.203148,-0.449863,-142.886337
122,918893325,0.309849,0.199501,-143.485443
123,918909992,-0.114270,0.174799,-143.754181
124,918926659,-0.033216,0.254981,-144.198532
125,918943326,0.100860,0.309730,-145.092331
126,918959993,0.130923,0.402591,-145.951477
127,918976660,0.234933,0.553462,-146.716843
128,918993327,0.263737,0.688284,-147.628754
129,919009994,0.231639,0.880996,-148.806091
130,919026661,0.204678,1.129527,-150.191269
131,919043328,0.007210,1.433862,-151.626526
132,919059995,0.564879,1.913156,-152.601395
133,919076662,1.560029,2.814203,-153.901001
134,919093329,2.468593,4.213053,-155.337921
135,919109996,1.707500,5.625665,-156.889328
136,919126663,1.169603,7.634937,-158.804459
137,919143330,0.944653,9.701327,-160.840530
138,919159997,1.025709,12.472924,-163.124420
139,919176664,1.035553,15.838256,-166.012070
140,919193331,0.950173,20.354200,-169.638962
141,919209998,0.540932,26.095936,-174.306122
142,919226665,-0.388487,33.341591,179.611374
143,919243332,-2.204739,41.086094,172.785995
144,919259999,-5.022643,49.053284,165.552185
145,919276666,-9.155641,57.192375,157.778442
146,919293333,-15.848911,65.443573,148.148438
147,919310000,-29.671028,73.468163,131.812073
148,919326667,-61.350052,78.944389,98.130379
149,919343334,-108.478134,78.214417,49.503677
150,919360001,-136.261154,73.181915,20.908325
151,919376668,-151.004822,67.677994,5.817991
152,919393335,-161.062820,62.784424,-4.237666
153,919410002,-168.400742,58.637264,-11.364619
154,919426669,-174.877228,54.662998,-17.078403
155,919443336,-179.897949,50.440533,-21.103395
156,919460003,174.887268,47.089352,-25.159184
157,919476670,170.916489,44.518742,-28.403320
158,919493337,167.503937,42.908916,-31.573406
159,919510004,164.544647,41.539448,-33.671532
160,919526671,162.181564,40.539749,-35.453743
161,919543338,160.554871,39.660961,-36.655239
162,919560005,159.573639,39.040443,-37.585064
163,919576672,158.576797,38.765339,-38.274166
164,919593339,157.522705,39.002171,-38.792515
165,919610006,156.353607,39.760944,-39.154964
166,919626673,154.943787,40.864788,-39.677307
167,919643340,154.512329,41.958298,-39.352955
168,919660007,155.046417,42.806217,-37.469746
169,919676674,156.288696,43.797951,-34.706806
170,919693341,158.086853,45.484833,-31.319328
171,919710008,160.783310,48.243462,-27.050892
172,919726675,163.715546,52.154869,-22.764679
173,919743342,166.650253,56.320793,-18.792665
174,919760009,173.057495,59.063038,-11.132188
175,919776676,-177.227768,60.131626,0.289568
176,919793343,-165.945984,59.663956,13.698572
177,919810010,-155.348358,58.527599,26.737267
178,919826677,-146.234680,57.282280,38.328812
179,919843344,-138.611588,55.514393,48.233360
180,919860011,-133.174957,53.533772,55.376942
181,919876678,-129.684341,51.243309,59.980125
182,919893345,-127.004677,48.353836,63.078541
183,919910012,-124.944778,44.851303,65.230194
184,919926679,-123.624031,41.621056,66.727905
185,919943346,-122.798294,39.440075,68.012726
186,919960013,-121.901695,38.697838,69.736969
187,919976680,-121.100838,39.901810,72.592133
188,919993347,-120.247452,40.582520,74.794395
189,920010014,-119.869148,40.094101,76.990753
190,920026681,-119.851608,39.738235,78.483002
191,920043348,-120.152756,39.369766,79.508972
192,920060015,-120.699310,39.631550,80.613777
193,920076682,-121.348396,40.477028,82.066200
194,920093349,-122.320221,41.141201,83.322998
195,920110016,-123.637558,41.433029,84.422150
196,920126683,-125.072716,41.423000,85.352783
197,920143350,-126.393379,40.894897,86.243095
198,920160017,-127.643562,40.081608,87.347748
199,920176684,-128.979004,39.277794,89.134712
200,920193351,-130.530334,38.347202,91.063934
201,920210018,-132.470413,37.300850,92.718727
202,920226685,-134.200806,35.907650,93.482712
203,920243352,-135.355576,34.032429,93.498100
204,920260019,-136.048538,31.468321,93.208336
205,920276686,-136.015610,28.748304,93.016495
206,920293353,-137.321152,28.484985,94.954529
207,920310020,-144.523666,29.616791,98.244522
208,920326687,-160.218536,31.991394,99.440155
209,920343354,176.123886,35.903923,97.636696
210,920360021,167.081070,49.954563,95.798874
211,920376688,158.587753,50.469654,86.559929
212,920393355,151.247681,45.103481,75.021942
213,920410022,149.454315,40.106174,71.242027
214,920426689,150.616745,35.899765,73.961319
215,920443356,151.862427,32.404171,77.174339
216,920460023,152.294388,29.072155,80.254349
217,920476690,152.007416,25.670523,83.761581
218,920493357,152.115143,22.347733,87.990517
219,920510024,154.844940,17.982950,92.416992
220,920526691,158.260834,14.847012,96.862999
221,920543358,162.380096,12.428618,101.966415
222,920560025,165.166565,8.402619,108.085983
223,920576692,169.428360,-1.864096,116.233414
224,920593359,173.952271,-11.650244,124.307655
225,920610026,174.063751,-10.876925,127.847084
226,920626693,175.551407,-8.873742,129.835388
227,920643360,176.999786,-7.197870,132.089798
228,920660027,178.461197,-5.288023,134.213821
229,920676694,-179.936493,-3.236814,136.232925
230,920693361,-177.965378,-0.633497,138.355270
231,920710028,-175.194717,2.927193,141.043167
232,920726695,-171.859039,9.068415,143.588867
233,920743362,-169.139267,15.752776,146.279678
234,920760029,-167.079468,19.910894,148.717850
235,920776696,-165.957443,21.214828,151.289108
236,920793363,-165.240997,21.235399,153.961945
237,920810030,-165.027267,21.712191,156.387650
238,920826697,-164.981033,22.690081,158.757919
239,920843364,-164.570206,23.573450,161.286148
240,920860031,-163.854324,24.580091,164.672760
241,920876698,-163.285522,26.218134,169.690155
242,920893365,-162.744797,28.006638,174.842255
243,920910032,-162.630081,30.192080,178.439972
244,920926699,-162.140320,31.701090,-178.139481
245,920943366,-161.269104,32.344780,-174.430435
246,920960033,-160.348526,31.938101,-170.340515
247,920976700,-160.295013,30.498625,-166.732254
248,920993367,-161.476593,28.661926,-164.394989
249,921010034,-162.844437,26.841255,-162.700317
250,921026701,-163.599777,25.523281,-160.811996
251,921043368,-163.446732,24.475956,-158.334625
252,921060035,-163.278046,24.465569,-155.418121
253,921076702,-163.644241,25.492517,-152.415909
254,921093369,-163.849670,26.529507,-150.378769
255,921110036,-163.285507,27.076185,-148.820419
256,921126703,-161.726913,28.086086,-147.654526
257,921143370,-159.816132,29.822386,-146.516876
258,921160037,-158.126114,31.603962,-145.859634
259,921176704,-156.681259,33.379196,-145.488937
260,921193371,-155.373718,35.276436,-145.403305
261,921210038,-153.973343,37.111256,-145.661392
262,921226705,-152.471497,38.464790,-146.209717
263,921243372,-150.452881,39.564747,-146.837051
264,921260039,-147.805008,39.984283,-148.018097
265,921276706,-146.148056,40.243015,-147.897751
266,921293373,-144.196732,40.531410,-147.780792
267,921310040,-142.359253,41.132713,-147.734177
268,921326707,-140.956863,41.045433,-147.685883
269,921343374,-140.233398,40.344662,-148.015350
270,921360041,-140.182098,39.785717,-148.680756
271,921376708,-140.107086,39.004677,-149.262695
272,921393375,-139.425110,38.267097,-149.407867
273,921410042,-138.081024,37.634617,-148.825851
274,921426709,-136.519684,37.265335,-148.180649
275,921443376,-134.653412,36.936558,-147.576126
276,921460043,-131.355377,36.556934,-145.765381
277,921476710,-126.977768,36.402802,-143.115067
278,921493377,-121.958046,36.642853,-139.495850
279,921510044,-117.657562,36.398769,-136.419739
280,921526711,-115.291870,35.863335,-134.755432
281,921543378,-114.544128,35.089272,-134.540771
282,921560045,-114.245964,34.333065,-134.772507
283,921576712,-113.728897,33.713326,-134.944336
284,921593379,-112.598824,33.313000,-135.119537
285,921610046,-111.166435,33.142418,-135.319839
286,921626713,-110.055519,33.456032,-135.936340
287,921643380,-109.592216,34.241329,-137.135880
288,921660047,-110.152740,35.359699,-139.383850
289,921676714,-112.290138,36.977398,-143.052246
290,921693381,-115.861458,38.998688,-147.971802
291,921710048,-120.479759,41.141190,-154.196274
292,921726715,-124.821671,42.603745,-160.770782
293,921743382,-128.035995,42.803925,-166.598724
294,921760049,-129.921188,41.802925,-170.898514
295,921776716,-130.194992,39.969536,-172.794891
296,921793383,-128.702820,37.717480,-171.431610
297,921810050,-126.571304,34.714245,-167.481003
298,921826717,-125.205772,31.015684,-162.708160
299,921843384,-124.431664,26.702866,-159.036163
300,921860051,-122.915840,21.832212,-156.296692
301,921876718,-120.256981,16.336697,-153.439255
302,921893385,-116.827217,10.207747,-149.815598
303,921910052,-113.564445,3.718176,-145.429459
304,921926719,-110.996162,-2.953522,-140.569870
305,921943386,-108.416344,-9.522860,-136.095673
306,921960053,-105.785042,-15.731860,-132.569336
307,921976720,-103.666115,-21.614803,-130.167282
308,921993387,-102.315857,-27.130835,-129.073303
309,922010054,-101.332268,-32.263348,-129.529755
310,922026721,-100.199303,-37.072685,-131.633499
311,922043388,-98.534172,-41.466057,-135.023041
312,922060055,-96.106125,-45.524292,-139.582306
313,922076722,-92.980759,-49.228924,-144.971329
314,922093389,-89.413963,-52.384720,-150.935150
315,922110056,-83.801659,-54.494446,-159.055618
316,922126723,-75.049080,-54.956470,-170.130524
317,922143390,-64.227898,-54.016037,177.818527
318,922160057,-52.954048,-52.773724,166.637451
319,922176724,-42.092110,-51.147655,157.045578
320,922193391,-32.626831,-48.662109,149.161926
321,922210058,-25.797495,-45.170444,143.448517
322,922226725,-22.237543,-40.658463,140.037857
323,922243392,-21.826126,-35.156738,138.433090
324,922260059,-24.086639,-29.051029,138.488602
325,922276726,-28.037390,-22.961199,139.789642
326,922293393,-32.135685,-17.826590,141.176468
327,922310060,-34.676949,-14.845174,142.525085
328,922326727,-35.623898,-14.978889,144.360840
329,922343394,-37.068851,-17.291653,147.240005
330,922360061,-39.648617,-20.072933,151.376328
331,922376728,-42.697224,-23.451708,157.164993
332,922393395,-46.664009,-28.604952,165.876495
333,922410062,-52.630707,-33.836315,179.237762
334,922426729,-60.072628,-36.038052,-163.480225
335,922443396,-67.810356,-34.826092,-144.757629
336,922460063,-75.954590,-30.942314,-126.164345
337,922476730,-83.666008,-23.532076,-109.011749
338,922493397,-90.178169,-12.916373,-93.399040
339,922510064,-94.763962,-0.222530,-78.912704
340,922526731,-96.756157,13.490778,-65.876999
341,922543398,-96.403542,26.523077,-52.581520
342,922560065,-94.218887,38.112209,-34.775806
343,922576732,-87.297310,47.340202,-10.408037
344,922593399,-76.317116,53.704250,18.964327
345,922610066,-65.893486,57.560936,51.087132
346,922626733,-59.037075,59.289547,84.923111
347,922643400,-56.935493,59.759033,116.572632
348,922660067,-58.561886,59.348373,144.082809
349,922676734,-62.351200,59.448582,168.086456
350,922693401,-65.935326,60.648537,-169.956207
351,922710068,-66.928139,62.849380,-148.471268
352,922726735,-66.379219,64.600121,-128.960938
353,922743402,-63.265285,64.143723,-112.062164
354,922760069,-52.738365,63.504353,-92.186089
355,922776736,-47.745422,62.828724,-75.154205
356,922793403,-36.287251,59.583210,-52.171471
357,922810070,-29.687159,56.564602,-32.395355
358,922826737,-32.133888,53.857510,-19.734493
359,922843404,-31.940973,51.881210,-8.285390
360,922860071,-31.072720,50.604156,4.922379
361,922876738,-30.063925,49.117447,19.675900
362,922893405,-30.105873,47.230438,33.772331
363,922910072,-31.250132,45.329235,46.852627
364,922926739,-34.086502,44.199821,58.453415
365,922943406,-37.375526,43.819992,68.503899
366,922960073,-41.109371,43.760567,77.356087
367,922976740,-44.435162,43.848675,86.266167
368,922993407,-46.475536,44.441460,95.927956
369,923010074,-48.290070,45.186939,105.260216
370,923026741,-50.941521,46.043095,113.319992
371,923043408,-55.199032,46.985268,120.124207
372,923060075,-60.027878,48.255798,126.609688
373,923076742,-63.506969,49.677883,132.846130
374,923093409,-67.688423,50.362717,136.659363
375,923110076,-73.746475,50.304413,136.229492
376,923126743,-79.729607,50.237862,131.167877
377,923143410,-84.867119,50.956982,122.516685
378,923160077,-89.555115,52.321949,110.886208
379,923176744,-95.692055,52.382370,97.148941
380,923193411,-100.377884,47.100163,85.970284
381,923210078,-101.382477,37.765640,84.186546
382,923226745,-99.643730,29.237478,88.433571
383,923243412,-98.895798,22.008520,92.979660
384,923260079,-98.383896,15.452578,96.265381
385,923276746,-97.324036,10.204310,98.778503
386,923293413,-95.903648,7.126186,99.379402
387,923310080,-94.432175,5.874434,98.219627
388,923326747,-92.725052,4.595962,96.836700
389,923343414,-91.074928,2.949535,95.893616
390,923360081,-89.835274,1.878767,94.535660
391,923376748,-88.402847,1.643632,92.671684
392,923393415,-86.034355,2.535033,90.823135
393,923410082,-83.389061,4.955573,89.383652
394,923426749,-81.624352,8.401440,88.779022
395,923443416,-80.489937,12.191301,88.067764
396,923460083,-79.751457,16.095150,87.078568
397,923476750,-79.443909,19.891796,86.165024
398,923493417,-80.022911,23.302004,85.143791
399,923510084,-81.707886,25.837652,84.066269
400,923526751,-84.116982,26.561224,84.349937
401,923543418,-85.287994,25.588888,86.956993
402,923560085,-84.355873,23.417971,90.746323
403,923576752,-81.571136,21.286562,93.558945
404,923593419,-78.381104,20.425512,95.119537
405,923610086,-75.266121,21.019049,96.079208
406,923626753,-72.263535,22.064465,96.660667
407,923643420,-68.714180,22.867638,97.488113
408,923660087,-65.345459,23.334492,98.676109
409,923676754,-62.906193,23.888212,99.771072
410,923693421,-62.139675,24.886337,100.178276
411,923710088,-62.772221,26.004478,99.987595
412,923726755,-64.273735,27.130777,99.625275
413,923743422,-66.555138,28.307804,99.375374
414,923760089,-69.602509,29.350563,99.502739
415,923776756,-73.418915,29.986788,100.042755
416,923793423,-77.145088,30.590235,100.249657
417,923810090,-79.556450,31.840324,99.213455
418,923826757,-80.579300,33.265079,97.794724
419,923843424,-79.432510,34.525166,96.800690
420,923860091,-77.852379,35.318848,96.613167
421,923876758,-76.677483,36.271564,96.902901
422,923893425,-76.465416,37.329765,97.250961
423,923910092,-77.281387,38.263081,97.465851
424,923926759,-78.786354,39.096104,97.461174
425,923943426,-80.521744,39.660458,97.443504
426,923960093,-82.120964,39.796787,97.628044
427,923976760,-83.438080,39.577126,98.166992
428,923993427,-84.435898,39.187279,98.905693
429,924010094,-85.169952,38.890247,99.587387
430,924026761,-85.506500,38.887291,99.792175
431,924043428,-85.355057,38.889709,99.928459
432,924060095,-85.008080,38.578159,100.294464
433,924076762,-84.637177,38.198364,100.905174
434,924093429,-84.527702,37.849228,101.609802
435,924110096,-84.490265,37.313797,102.544151
436,924126763,-84.533539,36.706547,103.599197
437,924143430,-84.818321,36.095909,104.697884
438,924160097,-85.170319,35.457672,105.984459
439,924176764,-85.476036,34.665565,107.559006
440,924193431,-85.687485,33.560734,109.521507
441,924210098,-85.491631,32.229645,111.939011
442,924226765,-84.886818,30.806015,114.656120
443,924243432,-84.050919,29.148434,117.238503
444,924260099,-82.720825,26.933508,119.495430
445,924276766,-80.922905,24.167913,121.585686
446,924293433,-79.061836,21.370522,123.415771
447,924310100,-77.856819,18.688225,125.115997
448,924326767,-77.366753,16.397043,126.682487
449,924343434,-77.929359,14.326612,127.854996
450,924360101,-79.454002,12.127799,128.758377
451,924376768,-81.543701,9.544709,129.735382
452,924393435,-83.731247,6.858379,130.970398
453,924410102,-86.338951,4.304235,132.553284
454,924426769,-89.456055,1.810665,134.090942
455,924443436,-92.684067,-0.324960,134.824036
456,924460103,-95.810127,-2.220253,135.222763
457,924476770,-98.416748,-4.425946,135.737564
458,924493437,-100.546219,-7.429450,137.333176
459,924510104,-102.412979,-10.772848,139.732483
460,924526771,-104.285423,-14.206329,142.149734
461,924543438,-106.193039,-17.797817,144.537506
462,924560105,-108.547821,-21.665426,147.542709
463,924576772,-111.323433,-25.249079,151.223694
464,924593439,-113.925911,-27.958633,154.903122
465,924610106,-115.905991,-29.840414,158.202255
466,924626773,-117.652977,-30.959642,161.501831
467,924643440,-119.424873,-31.162874,165.565704
468,924660107,-121.074654,-30.455343,170.617599
469,924676774,-122.057327,-29.056082,176.510620
470,924693441,-122.288879,-27.012049,-176.515625
471,924710108,-121.620399,-24.448370,-169.032547
472,924726775,-120.143082,-21.593454,-162.261978
473,924743442,-118.204529,-18.508970,-156.986633
474,924760109,-116.278549,-15.210203,-153.458664
475,924776776,-114.699959,-11.734712,-151.637039
476,924793443,-113.634583,-8.096798,-151.052383
477,924810110,-113.061958,-4.360590,-151.205383
478,924826777,-112.788750,-0.615578,-151.929825
479,924843444,-112.596268,3.005868,-153.002762
480,924860111,-112.236305,6.391215,-153.973862
481,924876778,-111.485802,9.519930,-154.463303
482,924893445,-110.182304,12.500587,-154.744980
483,924910112,-108.140335,15.465694,-155.448517
484,924926779,-105.380203,18.377485,-157.303940
485,924943446,-102.469978,21.233393,-160.825043
486,924960113,-100.269005,23.942329,-165.885727
487,924976780,-99.458031,26.205713,-172.168991
488,924993447,-100.313225,27.838600,-179.368423
489,925010114,-102.454422,28.749022,173.108978
490,925026781,-105.102707,28.967901,165.858047
491,925043448,-107.668907,28.545212,159.499420
492,925060115,-109.597481,27.494410,154.711868
493,925076782,-110.221039,26.128006,151.936447
494,925093449,-109.511360,24.626602,150.930573
495,925110116,-108.110062,22.930397,151.034805
496,925126783,-106.620102,21.032267,151.643005
497,925143450,-105.382965,18.982260,152.369934
498,925160117,-104.540184,16.856384,152.863556
499,925176784,-104.063507,14.741735,152.894165
500,925193451,-103.813995,12.449346,152.467560
501,925210118,-103.595520,9.849446,151.852905
502,925226785,-103.355865,7.144825,151.193649
503,925243452,-103.130203,4.605785,150.446640
504,925260119,-102.939117,2.349095,149.548019
505,925276786,-102.796547,0.374838,148.496536
506,925293453,-102.714851,-1.345857,147.327530
507,925310120,-102.840576,-2.838558,146.090012
508,925326787,-103.328400,-4.143349,144.631287
509,925343454,-104.143997,-5.139490,142.815750
510,925360121,-105.066612,-5.718081,140.559204
511,925376788,-105.571342,-5.813273,137.642502
512,925393455,-105.132706,-5.386253,134.001266
513,925410122,-103.280586,-4.989402,129.453094
514,925426789,-101.467842,-4.575247,125.065994
515,925443456,-100.387123,-4.192492,121.689369
516,925460123,-100.336975,-3.875519,117.567558
517,925476790,-101.062927,-4.411741,113.504524
518,925493457,-101.811020,-4.571568,109.875900
519,925510124,-102.152794,-4.822060,107.231857
520,925526791,-102.433044,-5.339390,104.863281
521,925543458,-102.861588,-5.561521,102.494209
522,925560125,-103.703857,-5.431447,100.105438
523,925576792,-104.901451,-5.418092,97.818832
524,925593459,-106.580620,-5.637545,95.815536
525,925610126,-108.358833,-6.107284,93.782951
526,925626793,-110.272385,-6.774894,91.846283
527,925643460,-112.201897,-7.560495,90.075340
528,925660127,-114.119080,-8.093064,88.400864
529,925676794,-116.066414,-8.308756,86.915207
530,925693461,-117.843674,-8.496811,85.702240
531,925710128,-119.228821,-8.476407,84.966530
532,925726795,-120.008804,-8.293657,84.900681
533,925743462,-120.334808,-8.011514,85.344513
534,925760129,-120.404396,-7.973016,86.018700
535,925776796,-120.353333,-8.181788,86.921837
536,925793463,-120.360214,-8.490053,88.199196
537,925810130,-120.178970,-8.814501,90.061424
538,925826797,-119.841148,-8.377754,92.624908
539,925843464,-119.288918,-7.452681,95.948067
540,925860131,-118.760406,-6.347242,99.318947
541,925876798,-118.485313,-5.140116,102.632462
542,925893465,-118.358536,-3.916599,106.045929
543,925910132,-118.153671,-2.616817,109.943970
544,925926799,-117.757652,-1.215182,114.160004
545,925943466,-117.079704,0.149378,118.422256
546,925960133,-116.205139,1.551339,122.655121
547,925976800,-115.196022,2.886959,126.638199
548,925993467,-114.089859,4.175254,130.305603
549,926010134,-113.014084,5.476078,133.592270
550,926026801,-112.071304,6.734978,136.380386
551,926043468,-111.208504,7.769428,138.790512
552,926060135,-110.375885,8.663422,140.811523
553,926076802,-109.376221,9.391484,142.422531
554,926093469,-108.160103,10.043890,143.754135
555,926110136,-106.720345,10.607044,144.911423
556,926126803,-105.184547,11.270055,146.063278
557,926143470,-103.683586,12.087787,147.093567
558,926160137,-102.325737,13.016505,147.870804
559,926176804,-101.216339,13.922256,148.303101
560,926193471,-100.366203,14.716695,148.402969
561,926210138,-99.733788,15.393363,148.260590
562,926226805,-99.315376,16.014109,147.926849
563,926243472,-99.175018,16.567345,147.350510
564,926260139,-99.422615,17.001011,146.510605
565,926276806,-100.063049,17.294876,145.475769
566,926293473,-100.962364,17.377064,144.404892
567,926310140,-102.036079,17.070316,143.414337
568,926326807,-103.374275,16.392870,142.553101
569,926343474,-105.141464,15.304090,141.364166
570,926360141,-107.633408,13.797817,139.752075
571,926376808,-110.383934,12.197423,138.120102
572,926393475,-112.858887,10.697158,136.638748
573,926410142,-114.669304,9.384071,135.581055
574,926426809,-115.579590,8.266183,135.080383
575,926443476,-115.717735,7.369160,134.988708
576,926460143,-115.424637,6.652410,135.152664
577,926476810,-114.896324,6.016100,135.322479
578,926493477,-114.196442,5.475819,135.366516
579,926510144,-113.469238,5.077434,135.135559
580,926526811,-112.837120,4.891003,134.466766
581,926543478,-112.458580,4.894475,133.281830
582,926560145,-112.378296,5.052970,131.615631
583,926576812,-112.519127,5.316165,129.582932
584,926593479,-112.751053,5.669961,127.361694
585,926610146,-112.961609,6.115657,125.101730
586,926626813,-113.136406,6.577095,122.844818
587,926643480,-113.271111,6.969171,120.625008
588,926660147,-113.396278,7.250599,118.543510
589,926676814,-113.414085,7.597959,116.565140
590,926693481,-113.241951,8.182668,114.615250
591,926710148,-112.873505,8.818393,112.665451
592,926726815,-112.425766,9.355474,110.832703
593,926743482,-112.035248,9.695679,109.244698
594,926760149,-111.714394,9.916892,108.004349
595,926776816,-111.388123,10.088316,107.071091
596,926793483,-111.024361,10.220942,106.378624
597,926810150,-110.694115,10.234721,105.907921
598,926826817,-110.432709,10.190102,105.633400
599,926843484,-110.241570,10.109405,105.510689
600,926860151,-110.046783,9.930442,105.579178
601,926876818,-109.759140,9.599184,105.910942
602,926893485,-109.259132,9.123577,106.518646
603,926910152,-108.454857,8.628231,107.393883
604,926926819,-107.336281,8.391432,108.612061
605,926943486,-106.051613,8.506253,109.964035
606,926960153,-104.908035,9.011436,111.424286
607,926976820,-103.804443,9.813468,113.043098
608,926993487,-102.718300,10.589808,114.944489
609,927010154,-101.473694,11.201425,117.240974
610,927026821,-100.013069,11.728365,120.037064
611,927043488,-98.607979,12.288701,123.206642
612,927060155,-97.602379,12.863674,126.542450
613,927076822,-97.178085,13.464255,129.971573
614,927093489,-97.137581,14.126248,133.543686
615,927110156,-97.310280,14.856035,137.414017
616,927126823,-97.496346,15.642351,141.521851
617,927143490,-97.728432,16.420269,145.571198
618,927160157,-97.821503,17.095205,149.382553
619,927176824,-97.704506,17.514421,152.864075
620,927193491,-97.241600,17.722132,156.200867
621,927210158,-96.439293,17.931862,159.485275
622,927226825,-95.366364,18.234161,162.576828
623,927243492,-94.046860,18.611620,165.253235
624,927260159,-92.475861,18.966431,167.382568
625,927276826,-90.615364,19.214804,169.320572
626,927293493,-88.503731,19.364710,171.336807
627,927310160,-86.386208,19.333817,173.351685
628,927326827,-84.322922,19.238287,174.814453
629,927343494,-82.004646,19.140499,175.907623
630,927360161,-79.599174,19.468864,176.476120
631,927376828,-78.071648,19.607323,176.717819
632,927393495,-76.912117,19.514946,176.703110
633,927410162,-75.699066,19.298843,176.456268
634,927426829,-74.639969,19.068546,175.694901
635,927443496,-73.598801,18.708302,174.291534
636,927460163,-72.371841,17.995264,172.074493
637,927476830,-70.460945,16.745499,169.692719
638,927493497,-67.604301,15.931883,168.080246
639,927510164,-63.751209,14.854436,166.528854
640,927526831,-58.741917,13.652643,164.922180
641,927543498,-55.962734,13.323547,161.311523
642,927560165,-56.312588,12.818299,158.113663
643,927576832,-54.495422,14.108349,155.528229
644,927593499,-47.580158,14.182956,154.081009
645,927610166,-34.333424,14.634112,154.823288
646,927626833,-16.227301,12.436097,155.641449
647,927643500,8.278134,6.169299,155.931229
648,927660167,32.212105,2.857447,155.356216
649,927676834,38.634495,13.626893,153.329178
650,927693501,41.665680,21.430676,149.848526
651,927710168,33.063595,22.254902,141.868256
652,927726835,20.089437,12.190976,134.341629
653,927743502,3.859545,6.730798,131.537201
654,927760169,-6.328505,2.596183,130.189789
655,927776836,-8.612364,0.160811,128.933304
656,927793503,-5.632522,0.080071,127.016098
657,927810170,-3.329304,0.997629,125.874840
658,927826837,-2.327532,2.589145,125.882370
659,927843504,-1.409597,4.584536,126.339676
660,927860171,-0.618744,6.453802,127.251915
661,927876838,-0.666525,8.253907,128.528412
662,927893505,-1.538915,11.255470,129.844513
663,927910172,-2.719511,16.277864,130.810333
664,927926839,-3.646692,22.530132,131.391464
665,927943506,-4.285147,28.315468,131.789413
666,927960173,-4.925395,32.896137,131.842621
667,927976840,-5.332203,35.831989,131.767609
668,927993507,-5.798060,37.323318,131.564011
669,928010174,-6.757272,37.971779,131.417282
670,928026841,-10.612056,37.590984,131.285080
671,928043508,-15.394562,37.009037,131.291031
672,928060175,-16.445835,38.556389,130.968491
673,928076842,-16.794237,41.130527,130.539352
674,928093509,-17.946558,44.045166,129.597763
675,928110176,-18.979233,47.056957,128.447220
676,928126843,-19.587307,49.474895,128.160751
677,928143510,-19.756977,51.324352,128.711655
678,928160177,-20.075020,52.659466,129.512451
679,928176844,-20.358503,54.509579,130.326935
680,928193511,-20.534395,56.792362,131.006073
681,928210178,-20.626038,58.621567,131.998230
682,928226845,-20.541267,59.854362,133.011017
683,928243512,-20.620420,60.435898,133.752655
684,928260179,-21.694273,61.503811,135.097946