PacketCounter,SampleTimeFine,Euler_X,Euler_Y,Euler_Z,Acc_X,Acc_Y,Acc_Z,Gyr_X,Gyr_Y,Gyr_Z
0,1206207099,-2.71406769752502,-70.21212768554688,-39.62725067138672,0.00000000000000,0.00000000000000,0.00000000000000,0.00000000000000,0.00000000000000,0.00000000000000
1,1206215432,-2.70815277099609,-70.22008514404297,-39.64091491699219,9.32940196990967,-0.13595868647099,3.31705927848816,-1.38556361198425,-1.04930007457733,-0.72717541456223
2,1206223765,-2.69159150123596,-70.23943328857422,-39.67173385620117,9.32760524749756,-0.15448567271233,3.30977702140808,-1.43143880367279,-1.08167648315430,-0.61677801609039
3,1206232098,-2.68564939498901,-70.24835968017578,-39.68308639526367,9.34717178344727,-0.13426020741463,3.31717371940613,-1.11704957485199,-1.16999411582947,-0.63816583156586
4,1206240431,-2.65185213088989,-70.28855133056641,-39.73368835449219,9.36557292938232,-0.15916714072227,3.32309317588806,-1.17452788352966,-1.13951325416565,-0.45786723494530
5,1206248764,-2.65083289146423,-70.29553985595703,-39.73860931396484,9.34486103057861,-0.15729068219662,3.34259486198425,-0.98470079898834,-0.94960933923721,-0.36575847864151
6,1206257097,-2.62775540351868,-70.33051300048828,-39.73120880126953,9.35685539245605,-0.15040282905102,3.35952591896057,-0.78257888555527,-0.90926688909531,-0.12139866501093
7,1206265430,-2.62986898422241,-70.33659362792969,-39.72941970825195,9.33724308013916,-0.15985140204430,3.35677886009216,-0.60220348834991,-0.85486227273941,-0.08956017345190
8,1206273763,-2.62293672561646,-70.35245513916016,-39.71948242187500,9.34613323211670,-0.14877198636532,3.35868883132935,-0.57784432172775,-0.78729194402695,0.07563883811235
9,1206282096,-2.63087344169617,-70.35705566406250,-39.70952987670898,9.32265949249268,-0.14912274479866,3.35668659210205,-0.37823256850243,-0.69123846292496,0.24766398966312
10,1206290429,-2.63064908981323,-70.36083984375000,-39.68807220458984,9.32610416412354,-0.15447978675365,3.35504055023193,-0.27472543716431,-0.67686885595322,0.21597920358181
11,1206298762,-2.63693451881409,-70.36641693115234,-39.67847061157227,9.32055473327637,-0.14080370962620,3.35031294822693,-0.22047449648380,-0.80509376525879,0.22783859074116
12,1206307095,-2.63425374031067,-70.36571502685547,-39.67070388793945,9.29898929595947,-0.15847839415073,3.34203004837036,0.04262209311128,-0.85862761735916,0.13037647306919
13,1206315428,-2.63893079757690,-70.37293243408203,-39.66175842285156,9.30566310882568,-0.14211983978748,3.30255341529846,-0.10029254108667,-1.00301516056061,0.19461697340012
14,1206323761,-2.63825893402100,-70.37068939208984,-39.63843536376953,9.29831695556641,-0.14434437453747,3.30356192588806,0.00496916146949,-0.84763902425766,0.22973407804966
15,1206332094,-2.64023494720459,-70.37606048583984,-39.63092422485352,9.30710887908936,-0.16138947010040,3.30671691894531,0.06339523196220,-0.78311681747437,0.14589868485928
16,1206340427,-2.63358235359192,-70.37704467773438,-39.61902999877930,9.27714347839355,-0.16695472598076,3.30871152877808,0.19963733851910,-0.68875396251678,0.12146269530058
17,1206348760,-2.63297748565674,-70.38435363769531,-39.61173629760742,9.33574008941650,-0.16912181675434,3.31303954124451,0.34622761607170,-1.01123714447021,0.12579150497913
18,1206357093,-2.63016533851624,-70.39134979248047,-39.60373306274414,9.31961631774902,-0.14497406780720,3.32026338577271,0.30568030476570,-1.22813856601715,0.03322166204453
19,1206365426,-2.63529658317566,-70.40049743652344,-39.59101486206055,9.34562015533447,-0.17106008529663,3.34879708290100,0.27317580580711,-1.24540245532990,0.33411207795143
20,1206373759,-2.64399909973145,-70.40789031982422,-39.57308197021484,9.38071060180664,-0.15878595411777,3.36077046394348,0.28321656584740,-1.16179752349854,0.45670178532600
21,1206382092,-2.65544581413269,-70.41468048095703,-39.55363082885742,9.45104408264160,-0.15272034704685,3.36546277999878,0.27504566311836,-0.97299522161484,0.61638104915619
22,1206390425,-2.67150855064392,-70.41541290283203,-39.52828216552734,9.47323989868164,-0.14329290390015,3.36195778846741,0.33362540602684,-0.50369107723236,0.74232608079910
23,1206398758,-2.68214583396912,-70.41479492187500,-39.50681304931641,9.45821094512939,-0.17061673104763,3.36604905128479,0.60085868835449,-0.08692189306021,0.74035382270813
24,1206407091,-2.68953895568848,-70.40800476074219,-39.48072433471680,9.42510795593262,-0.17103162407875,3.34599971771240,0.54061400890350,0.50895482301712,0.58946043252945
25,1206415424,-2.69198274612427,-70.39825439453125,-39.46682739257812,9.36405181884766,-0.16196182370186,3.32646536827087,0.72805905342102,1.02057349681854,0.48620936274529
26,1206423757,-2.69368147850037,-70.39101409912109,-39.44941711425781,9.30066299438477,-0.13890780508518,3.32307481765747,0.85792315006256,0.59099715948105,0.39007917046547
27,1206432090,-2.68577599525452,-70.38707733154297,-39.44091033935547,9.28638553619385,-0.13301445543766,3.34484863281250,1.35560786724091,0.33864581584930,0.23590713739395
28,1206440423,-2.67966938018799,-70.38600158691406,-39.41983795166016,9.30819511413574,-0.11136984080076,3.38683485984802,1.37351226806641,-0.17823666334152,0.24013347923756
29,1206448756,-2.67400598526001,-70.38669586181641,-39.41009521484375,9.39980125427246,-0.13835029304028,3.38800120353699,1.23209607601166,-0.22449594736099,0.26111152768135
30,1206457089,-2.66690349578857,-70.37854003906250,-39.38838958740234,9.43336200714111,-0.12910166382790,3.38791537284851,1.41042220592499,0.44673785567284,0.43866941332817
31,1206465422,-2.66708207130432,-70.36476898193359,-39.37120437622070,9.42585372924805,-0.10395757853985,3.38189601898193,1.36941373348236,1.49804842472076,0.64012533426285
32,1206473755,-2.66735434532166,-70.33799743652344,-39.35832977294922,9.37115192413330,-0.10267794132233,3.34104752540588,1.05963540077209,2.71346950531006,0.76466178894043
33,1206482088,-2.66882610321045,-70.30951690673828,-39.34192276000977,9.27575683593750,-0.08961241692305,3.29751610755920,1.12692391872406,3.26164007186890,0.69465810060501
34,1206490421,-2.65728306770325,-70.28340911865234,-39.33826828002930,9.20367908477783,-0.07189867645502,3.30631947517395,1.23406827449799,2.65399336814880,0.47468304634094
35,1206498754,-2.65311241149902,-70.27190399169922,-39.32923889160156,9.17537403106689,-0.06425398588181,3.35212969779968,0.96980607509613,1.23880684375763,0.30288833379745
36,1206507087,-2.62877058982849,-70.26911163330078,-39.34893798828125,9.21786117553711,-0.07134968042374,3.39435267448425,0.96967810392380,-0.12590678036213,-0.00021772101172
37,1206515420,-2.62009668350220,-70.27780914306641,-39.34798049926758,9.29492664337158,-0.11083330214024,3.42847919464111,0.59870713949203,-1.16779148578644,-0.13589632511139
38,1206523753,-2.59299492835999,-70.28649902343750,-39.36773681640625,9.38448047637939,-0.08177619427443,3.42556476593018,0.17768594622612,-1.65254056453705,-0.29739406704903
39,1206532086,-2.58762145042419,-70.29777526855469,-39.37045288085938,9.43680858612061,-0.11157704144716,3.42302107810974,-0.21360990405083,-1.46875858306885,-0.30005794763565
40,1206540419,-2.56917500495911,-70.29997253417969,-39.39083099365234,9.48477745056152,-0.12033227831125,3.40554714202881,-0.62190079689026,-0.90404158830643,-0.26757910847664
41,1206548752,-2.57100486755371,-70.30219268798828,-39.39147567749023,9.47084331512451,-0.10723542422056,3.38416743278503,-0.84305411577225,-0.38655716180801,-0.16519898176193
42,1206557085,-2.55932664871216,-70.29624938964844,-39.40477752685547,9.46198844909668,-0.11818667501211,3.39894485473633,-0.86807924509048,0.21247006952763,-0.21117654442787
43,1206565418,-2.55701351165771,-70.28897857666016,-39.40800094604492,9.43284034729004,-0.12909415364265,3.36817383766174,-0.63399070501328,0.75331467390060,-0.21670922636986
44,1206573751,-2.53981065750122,-70.27416992187500,-39.42338943481445,9.39361572265625,-0.14041727781296,3.37049865722656,-0.35853520035744,1.32878959178925,-0.21304640173912
45,1206582084,-2.53273701667786,-70.25941467285156,-39.42729949951172,9.36833667755127,-0.13359352946281,3.36991214752197,-0.14278656244278,1.65567862987518,-0.20602810382843
46,1206590417,-2.51353311538696,-70.24044799804688,-39.44599914550781,9.34785747528076,-0.13797961175442,3.39024567604065,0.08724209666252,1.80518889427185,-0.07111792266369
47,1206598750,-2.50738573074341,-70.22596740722656,-39.44691085815430,9.31245040893555,-0.12527489662170,3.36617088317871,0.08711401373148,1.61346626281738,-0.08774156123400
48,1206607083,-2.48825931549072,-70.20913696289062,-39.46057510375977,9.28385257720947,-0.09807255119085,3.35474014282227,0.18554951250553,1.51331460475922,-0.03115971758962
49,1206615416,-2.48586368560791,-70.19738769531250,-39.45855712890625,9.27745914459229,-0.11050426959991,3.34636449813843,-0.03364429622889,1.28086543083191,0.01711030863225
50,1206623749,-2.46393179893494,-70.18244934082031,-39.47730636596680,9.25278091430664,-0.10260027647018,3.31009221076965,0.17486837506294,1.26119375228882,-0.11599406599998
51,1206632082,-2.45632505416870,-70.17207336425781,-39.47951126098633,9.25148010253906,-0.09792957454920,3.31165194511414,0.11610931903124,1.12484908103943,-0.16291932761669
52,1206640415,-2.43273425102234,-70.16097259521484,-39.49829101562500,9.26082229614258,-0.08197864145041,3.30595850944519,0.01521485392004,0.85894775390625,-0.26017656922340
53,1206648748,-2.42272567749023,-70.15665435791016,-39.50421142578125,9.25452709197998,-0.11632668226957,3.31512808799744,-0.01533011998981,0.40437191724777,-0.34542074799538
54,1206657081,-2.39631366729736,-70.15341949462891,-39.53184890747070,9.25273895263672,-0.11054718494415,3.32461285591125,0.11052542179823,0.00389336328954,-0.38397020101547
55,1206665414,-2.38884305953979,-70.15768432617188,-39.53901672363281,9.24803924560547,-0.10168481618166,3.29853343963623,-0.45743185281754,-0.62236195802689,-0.43729904294014
56,1206673747,-2.36749315261841,-70.16631317138672,-39.55559921264648,9.24708080291748,-0.13019604980946,3.30005002021790,-0.47525924444199,-1.35825872421265,-0.47687292098999
57,1206682080,-2.36033654212952,-70.18005371093750,-39.56093597412109,9.27393054962158,-0.11777640879154,3.34906125068665,-0.28991472721100,-1.75883984565735,-0.40886721014977
58,1206690413,-2.34554243087769,-70.19488525390625,-39.57483673095703,9.36007022857666,-0.14906080067158,3.34456777572632,-0.28709715604782,-2.04692292213440,-0.19601294398308
59,1206698746,-2.34011173248291,-70.20819091796875,-39.57536315917969,9.45779609680176,-0.15282523632050,3.35856366157532,0.04720703139901,-1.71690928936005,-0.21168884634972
60,1206707079,-2.32551670074463,-70.21520996093750,-39.58678817749023,9.46188163757324,-0.14523833990097,3.33811068534851,0.20952442288399,-1.07155871391296,-0.06284451484680
61,1206715412,-2.32429432868958,-70.21520233154297,-39.58241271972656,9.47198104858398,-0.11611179262400,3.29369115829468,0.09454215317965,-0.12849381566048,0.05217619612813
62,1206723745,-2.31862854957581,-70.20581817626953,-39.59239578247070,9.39464282989502,-0.12415885925293,3.27763962745667,0.21687574684620,0.95935559272766,0.23178322613239
63,1206732078,-2.31795310974121,-70.19281005859375,-39.58540725708008,9.32186412811279,-0.11934518814087,3.29188847541809,0.32350778579712,1.42827522754669,0.22386841475964
64,1206740411,-2.30995774269104,-70.18140411376953,-39.58401489257812,9.29066276550293,-0.11199921369553,3.29814720153809,0.44253715872765,1.28422093391418,0.24891914427280
65,1206748744,-2.30871558189392,-70.17399597167969,-39.57419967651367,9.28887462615967,-0.11303637921810,3.30095839500427,0.71829992532730,0.74839669466019,0.31308278441429
66,1206757077,-2.29802656173706,-70.17121124267578,-39.57719802856445,9.27947616577148,-0.11058330535889,3.30675244331360,0.78146463632584,0.30547535419464,0.28004041314125
67,1206765410,-2.29052758216858,-70.16858673095703,-39.57178878784180,9.29326725006104,-0.12097603082657,3.31664443016052,0.97252130508423,0.18109264969826,0.11167807132006
68,1206773743,-2.27609395980835,-70.16896820068359,-39.57723999023438,9.28328132629395,-0.10082647204399,3.32280302047729,1.01365768909454,-0.03769134730101,0.17684066295624
69,1206782076,-2.27198123931885,-70.17028808593750,-39.56823348999023,9.29677200317383,-0.06074909493327,3.34273815155029,0.96847432851791,-0.29549863934517,0.23700852692127
70,1206790409,-2.26134157180786,-70.17548370361328,-39.56817245483398,9.29071998596191,-0.09491107612848,3.34107136726379,0.70208615064621,-0.61091232299805,0.18749618530273
71,1206798742,-2.26249265670776,-70.18223571777344,-39.55710601806641,9.29313850402832,-0.10016126185656,3.32879710197449,0.57439917325974,-0.95340019464493,0.29902052879333
72,1206807075,-2.25379586219788,-70.19278717041016,-39.56581115722656,9.29842376708984,-0.08903143554926,3.34833168983459,0.82447099685669,-1.26525354385376,0.29758620262146
73,1206815408,-2.25627017021179,-70.20300292968750,-39.55035781860352,9.31063747406006,-0.09384457021952,3.35900640487671,0.91161060333252,-1.37152707576752,0.45946812629700
74,1206823741,-2.24898004531860,-70.21639251708984,-39.54652404785156,9.33238983154297,-0.09313868731260,3.34961843490601,0.87859380245209,-1.62062537670135,0.36320984363556
75,1206832074,-2.25315308570862,-70.22714996337891,-39.52712631225586,9.33390617370605,-0.11068021506071,3.34660315513611,1.15868556499481,-1.44514226913452,0.61942911148071
76,1206840407,-2.25019550323486,-70.23738098144531,-39.51300048828125,9.35572338104248,-0.09335295110941,3.34497547149658,1.13209784030914,-1.26568889617920,0.63968986272812
77,1206848740,-2.25467252731323,-70.24507141113281,-39.49132156372070,9.37874412536621,-0.10760295391083,3.31912946701050,1.37497210502625,-1.07573390007019,0.72186040878296
78,1206857073,-2.25354099273682,-70.25075531005859,-39.46561050415039,9.37383174896240,-0.09079399704933,3.31429338455200,1.51070177555084,-0.74336344003677,0.85566908121109
79,1206865406,-2.25688076019287,-70.25230407714844,-39.44286346435547,9.34207630157471,-0.10323882848024,3.30325436592102,1.63349676132202,-0.34416571259499,0.79655158519745
80,1206873739,-2.25560522079468,-70.25575256347656,-39.42476654052734,9.36052894592285,-0.08777158707380,3.30771255493164,1.58365106582642,-0.45282122492790,0.86932146549225
81,1206882072,-2.26070213317871,-70.25711822509766,-39.39982223510742,9.33599472045898,-0.09784740954638,3.31282448768616,1.66833198070526,-0.32682484388351,0.88376790285110
82,1206890405,-2.25745129585266,-70.26107025146484,-39.39138031005859,9.33545207977295,-0.09318764507771,3.32801961898804,1.80798101425171,-0.48775908350945,0.87698024511337
83,1206898738,-2.26050996780396,-70.26366424560547,-39.36831283569336,9.32223415374756,-0.09157855808735,3.31137657165527,1.70132303237915,-0.47095611691475,0.80195599794388
84,1206907071,-2.25941133499146,-70.26871490478516,-39.35376739501953,9.35092353820801,-0.08569404482841,3.32167315483093,1.60795915126801,-0.61209058761597,0.89742028713226
85,1206915404,-2.26332998275757,-70.27211761474609,-39.33001708984375,9.33825206756592,-0.08892675489187,3.31697273254395,1.68029391765594,-0.56877684593201,0.82874858379364
86,1206923737,-2.25977039337158,-70.27703857421875,-39.32521438598633,9.35350513458252,-0.07572855055332,3.31247663497925,1.52632665634155,-0.59498023986816,0.76089644432068
87,1206932070,-2.26552987098694,-70.27976989746094,-39.30191802978516,9.32971668243408,-0.08494623005390,3.31876897811890,1.40952563285828,-0.48845064640045,0.81404596567154
88,1206940403,-2.26437973976135,-70.28729248046875,-39.28619384765625,9.31672954559326,-0.06650397926569,3.30952787399292,1.26375508308411,-0.89333480596542,0.75800198316574
89,1206948736,-2.26946091651917,-70.29505157470703,-39.26530838012695,9.31889438629150,-0.07552013546228,3.33365511894226,1.22502648830414,-1.08828485012054,0.69355666637421
90,1206957069,-2.25820922851562,-70.30571746826172,-39.26216888427734,9.32419109344482,-0.07938706129789,3.32793140411377,1.42253768444061,-1.25016665458679,0.38623702526093
91,1206965402,-2.25563621520996,-70.31535339355469,-39.24721145629883,9.33636569976807,-0.07708440721035,3.35902857780457,1.46728575229645,-1.30008888244629,0.44330552220345
92,1206973735,-2.24554133415222,-70.32708740234375,-39.23766326904297,9.34162330627441,-0.07652277499437,3.35023689270020,1.43260407447815,-1.39076316356659,0.43792656064034
93,1206982068,-2.24543690681458,-70.33458709716797,-39.22151565551758,9.37856006622314,-0.07799328118563,3.32132482528687,1.30927157402039,-1.04545783996582,0.50247442722321
94,1206990401,-2.23775649070740,-70.34329986572266,-39.21155548095703,9.33311176300049,-0.09719640761614,3.34107232093811,1.28358066082001,-1.06197905540466,0.49051266908646
95,1206998734,-2.23472619056702,-70.34966278076172,-39.19735336303711,9.32666110992432,-0.09620299190283,3.35168886184692,1.44059562683105,-0.90624445676804,0.42865419387817
96,1207007067,-2.22956466674805,-70.35730743408203,-39.18612670898438,9.32199859619141,-0.09363041073084,3.36273479461670,1.47589218616486,-0.94361561536789,0.66376721858978
97,1207015400,-2.23056960105896,-70.36484527587891,-39.16614913940430,9.33270549774170,-0.08323476463556,3.37808179855347,1.60821533203125,-1.05613887310028,0.65628790855408
98,1207023733,-2.22572636604309,-70.37293243408203,-39.15409851074219,9.32696342468262,-0.06618423759937,3.37780117988586,1.42963290214539,-1.00711321830750,0.66760939359665
99,1207032066,-2.22411179542542,-70.38208007812500,-39.13779830932617,9.34327411651611,-0.06094064563513,3.39141583442688,1.50537419319153,-1.24430119991302,0.49883720278740
100,1207040399,-2.21819019317627,-70.39151000976562,-39.13359451293945,9.34815979003906,-0.07720416784286,3.36524820327759,1.15404939651489,-1.19466066360474,0.51377028226852
101,1207048732,-2.21891260147095,-70.40090179443359,-39.11925125122070,9.38734149932861,-0.07205058634281,3.38355231285095,1.00507700443268,-1.26876258850098,0.41943311691284
102,1207057065,-2.21177840232849,-70.41075897216797,-39.11218261718750,9.40378570556641,-0.06612087786198,3.33609318733215,0.85262089967728,-1.25828635692596,0.34753394126892
103,1207065398,-2.21408653259277,-70.42097473144531,-39.09972381591797,9.36374950408936,-0.09459666907787,3.34755158424377,0.60603284835815,-1.36348414421082,0.34118157625198
104,1207073731,-2.20844006538391,-70.43371582031250,-39.10010528564453,9.36131858825684,-0.06954665482044,3.34795951843262,0.53213572502136,-1.62351965904236,0.25675705075264
105,1207082064,-2.21026539802551,-70.44773101806641,-39.09107208251953,9.36935710906982,-0.09541977196932,3.33553671836853,0.27729970216751,-1.81350064277649,0.18816216289997
106,1207090397,-2.20096874237061,-70.46245574951172,-39.09218215942383,9.38432979583740,-0.07643528282642,3.29624819755554,0.44340801239014,-1.85878646373749,0.08783121407032
107,1207098730,-2.19709110260010,-70.47930908203125,-39.08756256103516,9.36597347259521,-0.06605292856693,3.32175421714783,0.46904787421227,-2.15176224708557,-0.00065316306427
108,1207107063,-2.18512105941772,-70.49606323242188,-39.09112930297852,9.36225605010986,-0.06969787925482,3.33502626419067,0.47826895117760,-2.09192728996277,-0.02621616981924
109,1207115396,-2.17926859855652,-70.51432800292969,-39.08704376220703,9.35419845581055,-0.09134223312140,3.32943296432495,0.64514571428299,-2.31582140922546,-0.02854706346989
110,1207123729,-2.16883301734924,-70.53420257568359,-39.09250259399414,9.39019966125488,-0.07216554880142,3.30547451972961,0.69409453868866,-2.47629475593567,0.10975700616837
111,1207132062,-2.17382502555847,-70.55397033691406,-39.08047485351562,9.40612792968750,-0.06274136900902,3.29168796539307,0.24082505702972,-2.50933694839478,0.28160291910172
112,1207140395,-2.16698980331421,-70.57418060302734,-39.07703018188477,9.36734485626221,-0.06931887567043,3.28042340278625,0.47258266806602,-2.52739524841309,0.17904351651669
113,1207148728,-2.16920709609985,-70.59727478027344,-39.06631088256836,9.34161376953125,-0.07476221770048,3.26392102241516,0.42791137099266,-2.90753602981567,0.21533887088299
114,1207157061,-2.16073966026306,-70.62458801269531,-39.06080627441406,9.31260585784912,-0.10700105875731,3.22954893112183,0.58070033788681,-3.36088252067566,0.11662162840366
115,1207165394,-2.15504717826843,-70.65472412109375,-39.05366897583008,9.29532527923584,-0.11087380349636,3.19159555435181,0.96901208162308,-3.74512124061584,0.03972767665982
116,1207173727,-2.14206361770630,-70.68991851806641,-39.05681991577148,9.29294109344482,-0.07606729865074,3.13428831100464,0.67654883861542,-4.29687738418579,-0.03751204907894
117,1207182060,-2.13583111763000,-70.72776031494141,-39.05218124389648,9.29488945007324,-0.06559514254332,3.19374537467957,0.75154733657837,-4.67064046859741,-0.09365844726562
118,1207190393,-2.12883615493774,-70.77098846435547,-39.04601669311523,9.32288360595703,-0.05294658988714,3.19055747985840,0.27033263444901,-5.22562408447266,0.04313437268138
119,1207198726,-2.13891196250916,-70.81856536865234,-39.03518676757812,9.39504718780518,-0.01248266454786,3.15547776222229,-0.50904452800751,-5.83888053894043,0.10699066519737
120,1207207059,-2.14727783203125,-70.86483764648438,-39.02831649780273,9.46864700317383,0.00488939788193,3.07519936561584,-0.79561656713486,-5.58985900878906,0.29576754570007
121,1207215392,-2.17445397377014,-70.89991760253906,-39.00670623779297,9.47735595703125,0.06138228997588,3.00323557853699,-1.34081554412842,-4.35886430740356,0.58175051212311
122,1207223725,-2.20254302024841,-70.92576599121094,-38.98516464233398,9.38601875305176,0.14927788078785,2.98214030265808,-2.13083529472351,-3.13214683532715,0.71637892723083
123,1207232058,-2.23909306526184,-70.94876861572266,-38.95967102050781,9.24034118652344,0.16891977190971,2.99394130706787,-2.02873706817627,-2.91522026062012,0.78223311901093
124,1207240391,-2.26141405105591,-70.97944641113281,-38.93723678588867,9.19798469543457,0.16837435960770,3.15088391304016,-1.65505099296570,-3.63003635406494,0.69312119483948
125,1207248724,-2.28083038330078,-71.01972198486328,-38.92574691772461,9.17292118072510,0.10697360336781,3.35654187202454,-1.56509363651276,-4.96599817276001,0.14594991505146
126,1207257057,-2.28727889060974,-71.07975769042969,-38.91492843627930,9.21138477325439,0.01874826848507,3.50594711303711,-1.87366867065430,-7.10693931579590,-0.12106570601463
127,1207265390,-2.29224133491516,-71.15498352050781,-38.91807937622070,9.31801033020020,-0.05609880760312,3.55728268623352,-1.49342536926270,-9.13812255859375,-0.59377640485764
128,1207273723,-2.28389739990234,-71.24452972412109,-38.92660903930664,9.40539073944092,-0.10615450888872,3.52496647834778,-1.35482668876648,-10.69103813171387,-0.61280786991119
129,1207282056,-2.28204989433289,-71.33461761474609,-38.93140792846680,9.52069473266602,-0.09395255148411,3.47664070129395,-0.87683933973312,-10.91413593292236,-0.73091506958008
130,1207290389,-2.27168631553650,-71.42051696777344,-38.93962097167969,9.62647342681885,-0.08012689650059,3.40089535713196,-1.44411790370941,-10.36127948760986,-0.85965222120285
131,1207298722,-2.28222346305847,-71.49620819091797,-38.94956588745117,9.71686935424805,-0.04177331924438,3.30120229721069,-2.95551133155823,-9.18094825744629,-0.85583555698395
132,1207307055,-2.29513216018677,-71.55919647216797,-38.95218276977539,9.74102401733398,-0.05161787196994,3.18534135818481,-4.59056997299194,-7.64611864089966,-1.01456713676453
133,1207315388,-2.31931066513062,-71.61019897460938,-38.97489547729492,9.71242618560791,-0.06317698210478,3.04066920280457,-6.05378389358521,-6.20134735107422,-1.22416853904724
134,1207323721,-2.33789515495300,-71.64604187011719,-39.00958633422852,9.69460201263428,-0.04895748198032,2.93745946884155,-7.39804458618164,-4.36708641052246,-1.63842737674713
135,1207332054,-2.36208391189575,-71.67198944091797,-39.05229187011719,9.59905433654785,-0.02393980883062,2.88063859939575,-8.35202312469482,-3.16349959373474,-1.86301326751709
136,1207340387,-2.37774157524109,-71.69110107421875,-39.08879089355469,9.54067707061768,-0.00926428195089,2.86757183074951,-8.97419166564941,-2.29830145835876,-2.11815667152405
137,1207348720,-2.40142607688904,-71.70598602294922,-39.14696884155273,9.49949836730957,0.03241609036922,2.91644048690796,-10.06625556945801,-1.81206655502319,-2.39123034477234
138,1207357053,-2.42099428176880,-71.71551513671875,-39.20077514648438,9.46113204956055,0.03110305964947,2.90762543678284,-11.00127601623535,-1.07058537006378,-2.40009236335754
139,1207365386,-2.46166419982910,-71.71864318847656,-39.25748443603516,9.44134998321533,0.05935361236334,2.92560029029846,-11.95287132263184,-0.40177211165428,-2.28026890754700
140,1207373719,-2.49606132507324,-71.72356414794922,-39.31069946289062,9.40100288391113,0.09863948076963,2.96292376518250,-12.88456439971924,-0.44188407063484,-2.30181074142456
141,1207382052,-2.55836105346680,-71.73149871826172,-39.35577011108398,9.33634471893311,0.06165782362223,3.00954771041870,-13.23960208892822,-0.99781548976898,-1.87402725219727
142,1207390385,-2.61257910728455,-71.74644470214844,-39.39250946044922,9.33106708526611,0.03662170469761,3.03555798530579,-12.83400344848633,-1.62920665740967,-1.47910726070404
143,1207398718,-2.68758273124695,-71.76596069335938,-39.41204452514648,9.34506416320801,0.01779972016811,3.05210471153259,-11.87546443939209,-2.42475891113281,-0.98528999090195
144,1207407051,-2.75411629676819,-71.79067993164062,-39.41621780395508,9.36256122589111,0.01087616011500,3.04480648040771,-11.28771972656250,-2.84214282035828,-0.49380400776863
145,1207415384,-2.84463691711426,-71.81447601318359,-39.41224288940430,9.40529441833496,0.01632137224078,3.01279377937317,-11.07701778411865,-2.98053646087646,-0.13955917954445
146,1207423717,-2.93163919448853,-71.83743286132812,-39.39238739013672,9.43004417419434,0.00202425965108,3.00107955932617,-11.14589500427246,-2.66435456275940,0.37629875540733
147,1207432050,-3.04487681388855,-71.85552978515625,-39.36738967895508,9.46892356872559,-0.02181534841657,3.00915932655334,-11.42859840393066,-2.33398199081421,0.66363924741745
148,1207440383,-3.14901852607727,-71.87068176269531,-39.32025146484375,9.49003028869629,-0.03682418540120,3.02275848388672,-11.67134475708008,-1.76742053031921,0.90269690752029
149,1207448716,-3.27540588378906,-71.88340759277344,-39.28350830078125,9.51649951934814,-0.03990840166807,3.04983186721802,-11.68814659118652,-1.71731925010681,1.12282574176788
150,1207457049,-3.39179611206055,-71.89831542968750,-39.24584960937500,9.54456043243408,-0.02815123833716,3.03016662597656,-12.19889545440674,-1.77320957183838,1.13558149337769
151,1207465382,-3.52160167694092,-71.91117858886719,-39.21339416503906,9.56691265106201,0.00905073620379,2.99572610855103,-12.61364269256592,-1.72679662704468,0.94659978151321
152,1207473715,-3.63767862319946,-71.92182922363281,-39.16958999633789,9.57736110687256,0.00529697164893,2.92970657348633,-13.13448143005371,-1.26061737537384,0.78248924016953
153,1207482048,-3.76388645172119,-71.92739868164062,-39.14976882934570,9.59595012664795,0.01896672137082,2.91227769851685,-13.63675212860107,-0.82668673992157,0.52117294073105
154,1207490381,-3.87618184089661,-71.92977142333984,-39.12758636474609,9.58827018737793,0.03787352144718,2.87286567687988,-14.27785015106201,-0.22762091457844,0.31333896517754
155,1207498714,-4.00263023376465,-71.93047332763672,-39.11688232421875,9.55556774139404,0.05374609678984,2.83613848686218,-14.72899246215820,-0.22785143554211,0.21308484673500
156,1207507047,-4.12414264678955,-71.93600463867188,-39.09203338623047,9.52702045440674,0.06244723126292,2.83125519752502,-15.36878681182861,-0.57535982131958,0.32056221365929
157,1207515380,-4.26144504547119,-71.94383239746094,-39.08001327514648,9.48978519439697,0.08910851180553,2.83551335334778,-15.90025711059570,-1.08067750930786,0.19251662492752
158,1207523713,-4.39124011993408,-71.95823669433594,-39.05929946899414,9.47772979736328,0.08470241725445,2.82919669151306,-16.57027626037598,-1.55200541019440,0.31349271535873
159,1207532046,-4.53779697418213,-71.97586822509766,-39.04741287231445,9.45680427551270,0.11370871216059,2.81404542922974,-17.04124450683594,-2.26164793968201,0.08801052719355
160,1207540379,-4.66332101821899,-72.00146484375000,-39.03365325927734,9.45456409454346,0.11239174753428,2.80001640319824,-16.95103073120117,-2.79398870468140,0.03990698605776
161,1207548712,-4.81167697906494,-72.02738952636719,-39.01998519897461,9.46943855285645,0.13751022517681,2.80786275863647,-17.07562065124512,-3.25343132019043,0.05414851009846
162,1207557045,-4.93584585189819,-72.05764007568359,-39.00455474853516,9.48899459838867,0.16078415513039,2.82802367210388,-16.73797035217285,-3.29769229888916,0.08065923303366
163,1207565378,-5.08007812500000,-72.08366394042969,-38.98988342285156,9.56239318847656,0.12396775931120,2.80438733100891,-16.48653984069824,-3.26826167106628,0.06839001923800
164,1207573711,-5.19708013534546,-72.10536956787109,-38.97823715209961,9.58960151672363,0.08979216963053,2.76301169395447,-16.35227203369141,-2.24822616577148,0.03511712700129
165,1207582044,-5.33519935607910,-72.11341094970703,-38.96794509887695,9.63097381591797,0.07127410918474,2.76185178756714,-16.26930809020996,-1.10495996475220,0.08649929612875
166,1207590377,-5.45457410812378,-72.11412048339844,-38.95701980590820,9.68852806091309,0.08042550086975,2.75498723983765,-16.13506126403809,0.21651716530323,0.32048535346985
167,1207598710,-5.60090923309326,-72.09892272949219,-38.93900299072266,9.71652126312256,0.07525216788054,2.76010656356812,-16.39310264587402,1.64302575588226,0.62829184532166
168,1207607043,-5.73392534255981,-72.07855224609375,-38.90991592407227,9.72299671173096,0.03664157912135,2.79025650024414,-16.67242431640625,2.67410087585449,0.81368756294250
169,1207615376,-5.88152217864990,-72.04531097412109,-38.89537811279297,9.76239776611328,0.01087220385671,2.81255197525024,-16.95779228210449,3.80950379371643,0.72816169261932
170,1207623709,-6.00927543640137,-72.00410461425781,-38.87533187866211,9.77298164367676,-0.00465222215280,2.82845187187195,-16.92454719543457,5.14508152008057,0.70708107948303
171,1207632042,-6.14660263061523,-71.95056915283203,-38.87440872192383,9.76600646972656,-0.01063327491283,2.79501485824585,-17.29336547851562,6.27589941024780,0.49978506565094
172,1207640375,-6.26670598983765,-71.89084625244141,-38.86696243286133,9.74017143249512,0.00356882810593,2.72977924346924,-17.24808120727539,7.37106275558472,0.48477512598038
173,1207648708,-6.39763069152832,-71.82294464111328,-38.86885070800781,9.72829151153564,0.00599383655936,2.66348981857300,-16.86947631835938,8.00227355957031,0.60913228988647
174,1207657041,-6.51048469543457,-71.75680541992188,-38.85589599609375,9.66864871978760,0.02371763065457,2.64975285530090,-15.25385856628418,8.15531826019287,1.04319119453430
175,1207665374,-6.63995838165283,-71.69144439697266,-38.83686065673828,9.62736892700195,0.06529584527016,2.68183779716492,-14.32633876800537,7.60689115524292,1.38524365425110
176,1207673707,-6.75360965728760,-71.63753509521484,-38.82013702392578,9.55515480041504,0.18206383287907,2.72826433181763,-14.09955024719238,6.79986381530762,1.53106558322906
177,1207682040,-6.88391017913818,-71.58551025390625,-38.79851913452148,9.51428890228271,0.20742286741734,2.72020292282104,-14.14842224121094,6.00456666946411,1.32604920864105
178,1207690373,-6.97474861145020,-71.54075622558594,-38.80102539062500,9.51478195190430,0.28949302434921,2.76626324653625,-13.96274471282959,5.98428058624268,0.85997247695923
179,1207698706,-7.08074522018433,-71.48530578613281,-38.80753707885742,9.51430988311768,0.30685433745384,2.79789519309998,-14.43924713134766,6.53165674209595,0.34069499373436
180,1207707039,-7.13560867309570,-71.42885589599609,-38.85093688964844,9.46269607543945,0.30244097113609,2.83393645286560,-14.74016475677490,7.74577283859253,-0.39460021257401
181,1207715372,-7.20518636703491,-71.35545349121094,-38.90183639526367,9.42569637298584,0.36543148756027,2.89521288871765,-15.12990951538086,8.88747596740723,-1.06159496307373
182,1207723705,-7.22684383392334,-71.28303527832031,-38.99752426147461,9.34050941467285,0.37938061356544,2.96446728706360,-16.20058631896973,9.91760349273682,-1.88732135295868
183,1207732038,-7.27145957946777,-71.19966125488281,-39.09186935424805,9.33638954162598,0.37026065587997,3.00779795646667,-17.07500648498535,10.29269981384277,-2.57572984695435
184,1207740371,-7.27168607711792,-71.12236785888672,-39.23680114746094,9.36245346069336,0.44854524731636,3.08749604225159,-18.70937156677246,10.78728485107422,-3.33818936347961
185,1207748704,-7.31469058990479,-71.03591156005859,-39.36702346801758,9.36120319366455,0.35810124874115,3.08065915107727,-20.95256805419922,10.84512329101562,-3.93605113029480
186,1207757037,-7.32314443588257,-70.96106719970703,-39.53392028808594,9.41212081909180,0.28198358416557,3.08076095581055,-22.38256072998047,10.60624504089355,-4.22533893585205
187,1207765370,-7.37876272201538,-70.87805175781250,-39.67348480224609,9.48933982849121,0.20598004758358,3.09078264236450,-23.51566123962402,10.49110984802246,-4.37881994247437
188,1207773703,-7.41797590255737,-70.80799865722656,-39.82262802124023,9.54846572875977,0.12533824145794,3.11205983161926,-25.05569458007812,9.96043491363525,-3.96563696861267
189,1207782036,-7.52250766754150,-70.72909545898438,-39.93063735961914,9.57740211486816,0.04899860918522,3.08201789855957,-25.79694557189941,9.85572433471680,-3.22164535522461
190,1207790369,-7.61886692047119,-70.65390777587891,-40.03306579589844,9.57271289825439,-0.01367755141109,3.07204341888428,-25.68803215026855,10.09245109558105,-2.16628670692444
191,1207798702,-7.77826213836670,-70.57099914550781,-40.08314132690430,9.52919101715088,-0.01841101422906,3.10671329498291,-25.82471084594727,10.04396247863770,-0.86241906881332
192,1207807035,-7.93723917007446,-70.49447631835938,-40.11652755737305,9.44553279876709,-0.01759406924248,3.18466067314148,-25.98098373413086,9.85838699340820,0.25957483053207
193,1207815368,-8.15085124969482,-70.41918182373047,-40.11267852783203,9.38909053802490,-0.03679797053337,3.20466852188110,-26.23246574401855,8.84375667572021,1.20053994655609
194,1207823701,-8.35645580291748,-70.36337280273438,-40.10132598876953,9.32720851898193,-0.09641238301992,3.21474719047546,-26.09788703918457,7.22562646865845,2.17713451385498
195,1207832034,-8.61219692230225,-70.31416320800781,-40.04267883300781,9.34257221221924,-0.13193134963512,3.27992129325867,-25.10389518737793,5.41830968856812,2.99548387527466
196,1207840367,-8.84177017211914,-70.28481292724609,-39.99515151977539,9.32198524475098,-0.13816046714783,3.33158659934998,-24.25662994384766,3.97866129875183,3.85847926139832
197,1207848700,-9.13067913055420,-70.25283813476562,-39.88848114013672,9.33246803283691,-0.15995328128338,3.37111234664917,-23.66527175903320,3.04038548469543,4.65567159652710
198,1207857033,-9.38467597961426,-70.23249053955078,-39.79715728759766,9.33905220031738,-0.14468012750149,3.32898497581482,-22.92627906799316,2.60366272926331,5.22674083709717
199,1207865366,-9.68153858184814,-70.20151519775391,-39.66240310668945,9.34487438201904,-0.14866088330746,3.20605707168579,-21.45468330383301,2.68642187118530,5.80444288253784
200,1207873699,-9.92426109313965,-70.17888641357422,-39.55705642700195,9.29351711273193,-0.14318235218525,3.13283681869507,-19.66598892211914,2.66318988800049,5.93003034591675
201,1207882032,-10.19281196594238,-70.15521240234375,-39.42613983154297,9.23046016693115,-0.14362946152687,3.10095834732056,-18.50192451477051,1.79607057571411,5.54023265838623
202,1207890365,-10.39504051208496,-70.15475463867188,-39.34524536132812,9.14419651031494,-0.14531344175339,3.12501120567322,-17.63175201416016,0.25880628824234,4.71471071243286
203,1207898698,-10.63801097869873,-70.16543579101562,-39.23425292968750,9.12956809997559,-0.12189785391092,3.15857148170471,-17.68231582641602,-2.15117335319519,4.01229143142700
204,1207907031,-10.83496475219727,-70.20096588134766,-39.16136932373047,9.21448802947998,-0.13966338336468,3.24458718299866,-17.93338966369629,-4.02426624298096,3.37459969520569
205,1207915364,-11.07604980468750,-70.23979187011719,-39.06609725952148,9.36345767974854,-0.17661546170712,3.30599570274353,-19.23282623291016,-5.37380409240723,2.71697974205017
206,1207923697,-11.28434562683105,-70.28978729248047,-39.01126861572266,9.51415348052979,-0.22936575114727,3.30178666114807,-21.39264678955078,-5.58699178695679,2.34324240684509
207,1207932030,-11.50829219818115,-70.32580566406250,-38.95957565307617,9.59799098968506,-0.32140445709229,3.20341157913208,-22.59016609191895,-4.15359401702881,2.48586297035217
208,1207940363,-11.76027393341064,-70.33644866943359,-38.88066101074219,9.53290843963623,-0.35275679826736,3.15839123725891,-22.39249801635742,-1.94121408462524,2.69208312034607
209,1207948696,-11.99877834320068,-70.32756042480469,-38.81378555297852,9.36627674102783,-0.39007443189621,3.08638334274292,-22.12887382507324,0.43080595135689,2.67640662193298
210,1207957029,-12.18345832824707,-70.30728912353516,-38.78881454467773,9.23590373992920,-0.48212677240372,2.95004200935364,-20.77890205383301,2.54559493064880,2.49165105819702
211,1207965362,-12.31613349914551,-70.28300476074219,-38.79633712768555,9.07966613769531,-0.57786244153976,2.88034343719482,-18.50981140136719,3.64213991165161,2.19931554794312
212,1207973695,-12.47119522094727,-70.25199890136719,-38.76595306396484,8.93453693389893,-0.59617060422897,2.86124801635742,-16.24855995178223,3.32744336128235,1.84051120281219
213,1207982028,-12.60513877868652,-70.22732543945312,-38.74298095703125,8.86230850219727,-0.61553603410721,2.97208261489868,-14.54554748535156,2.63839507102966,1.37556171417236
214,1207990361,-12.70339488983154,-70.21567535400391,-38.74474334716797,8.82897663116455,-0.67082339525223,3.12181186676025,-13.36078357696533,1.69302415847778,1.00146543979645
215,1207998694,-12.79979133605957,-70.20996856689453,-38.74225234985352,8.84814453125000,-0.67223662137985,3.21240019798279,-12.57542610168457,0.86396831274033,0.76804292201996
216,1208007027,-12.90581893920898,-70.20837402343750,-38.72480773925781,8.87021350860596,-0.73326283693314,3.25003147125244,-11.82700252532959,-0.01571433618665,0.57081329822540
217,1208015360,-12.99916267395020,-70.20818328857422,-38.70748901367188,8.90426063537598,-0.76256197690964,3.24980807304382,-10.31099891662598,-0.18617710471153,0.52217179536819
218,1208023693,-13.05400848388672,-70.21037292480469,-38.71093750000000,8.93482208251953,-0.77412390708923,3.24708223342896,-8.33447456359863,0.07154055684805,0.52473324537277
219,1208032026,-13.08002853393555,-70.21140289306641,-38.72577285766602,8.94320106506348,-0.79037058353424,3.25797939300537,-6.21628093719482,0.36771795153618,0.29689463973045
220,1208040359,-13.10724449157715,-70.20730590820312,-38.72349166870117,8.97798728942871,-0.79595196247101,3.30111789703369,-4.08212709426880,0.41933062672615,0.04567018151283
221,1208048692,-13.11077022552490,-70.20471191406250,-38.73108673095703,9.03968048095703,-0.81704694032669,3.27509617805481,-2.35252666473389,0.32809278368950,-0.39472821354866
222,1208057025,-13.06913757324219,-70.20513916015625,-38.77043533325195,9.09534072875977,-0.84796237945557,3.26173210144043,-0.92717128992081,0.72457557916641,-0.47169893980026
223,1208065358,-12.99355030059814,-70.20109558105469,-38.82857513427734,9.15830326080322,-0.82543182373047,3.30365753173828,0.90354216098785,1.54149031639099,-0.74377322196960
224,1208073691,-12.93083953857422,-70.18345642089844,-38.86031723022461,9.21768188476562,-0.81554961204529,3.33945631980896,2.86554121971130,2.31826734542847,-0.92617225646973
225,1208082024,-12.84432888031006,-70.16324615478516,-38.90292739868164,9.24417114257812,-0.78717660903931,3.35797810554504,4.49821853637695,2.70709180831909,-1.30805504322052
226,1208090357,-12.69554805755615,-70.15431976318359,-38.99783325195312,9.25777530670166,-0.73664003610611,3.39358639717102,5.44955635070801,2.53012299537659,-1.80015575885773
227,1208098690,-12.53576946258545,-70.14965820312500,-39.09463119506836,9.25442218780518,-0.69839709997177,3.39662122726440,6.59861040115356,1.97239851951599,-2.13093781471252
228,1208107023,-12.38659763336182,-70.14530181884766,-39.16942596435547,9.22282028198242,-0.61790889501572,3.44961714744568,8.37516307830811,1.14408552646637,-2.99372816085815
229,1208115356,-12.18453979492188,-70.16172790527344,-39.29243469238281,9.21557617187500,-0.49612995982170,3.54774594306946,8.71524524688721,-0.32198378443718,-3.74297070503235
230,1208123689,-12.01594257354736,-70.18709564208984,-39.39605331420898,9.21132183074951,-0.42094543576241,3.56002235412598,7.45115661621094,-2.12071800231934,-4.88964319229126
231,1208132022,-11.80435180664062,-70.23684692382812,-39.54295349121094,9.19037246704102,-0.28854653239250,3.50959229469299,7.16960430145264,-4.13617372512817,-5.52597761154175
232,1208140355,-11.63595867156982,-70.29966735839844,-39.66600418090820,9.21686935424805,-0.35802254080772,3.45665097236633,5.21810722351074,-6.38966321945190,-6.53684329986572
233,1208148688,-11.40758228302002,-70.37442779541016,-39.84357452392578,9.29038715362549,-0.27812317013741,3.39004373550415,5.66305160522461,-6.89541673660278,-7.18014430999756
234,1208157021,-11.22475337982178,-70.44844055175781,-39.98905563354492,9.32678413391113,-0.22251486778259,3.39699220657349,4.40677595138550,-7.58507966995239,-7.59765672683716
235,1208165354,-11.00875854492188,-70.53345489501953,-40.18050003051758,9.32019901275635,-0.19766066968441,3.36930561065674,2.63283586502075,-8.13181591033936,-7.97920656204224
236,1208173687,-10.83039283752441,-70.61886596679688,-40.33381271362305,9.38989257812500,-0.22178751230240,3.31151509284973,2.96456623077393,-8.92585659027100,-8.05996704101562
237,1208182020,-10.61780929565430,-70.70564270019531,-40.51646804809570,9.49386405944824,-0.14330375194550,3.33021998405457,3.21240949630737,-8.52217674255371,-7.60751771926880
238,1208190353,-10.44871807098389,-70.77851104736328,-40.66193389892578,9.51881027221680,-0.15948449075222,3.28563523292542,2.72117972373962,-7.56230974197388,-7.36459350585938
239,1208198686,-10.23681449890137,-70.84220123291016,-40.84140396118164,9.53549575805664,-0.09235576540232,3.28319764137268,3.63573622703552,-6.01628446578979,-7.33085727691650
240,1208207019,-10.05713748931885,-70.88619995117188,-40.99448013305664,9.56120491027832,-0.15229266881943,3.26683878898621,3.11246275901794,-4.15330982208252,-6.96552276611328
241,1208215352,-9.84997177124023,-70.92185211181641,-41.16330718994141,9.63371181488037,-0.28071877360344,3.19218683242798,4.28126573562622,-2.85635876655579,-6.32824039459229
242,1208223685,-9.64801597595215,-70.93103790283203,-41.31023406982422,9.59335327148438,-0.24335986375809,3.21817517280579,6.47909450531006,-0.13069662451744,-5.96912813186646
243,1208232018,-9.43102741241455,-70.92331695556641,-41.47505569458008,9.54003906250000,-0.23340696096420,3.35963487625122,5.94188785552979,2.18709707260132,-5.39862251281738
244,1208240351,-9.25502681732178,-70.90701293945312,-41.60857009887695,9.44932937622070,-0.28419363498688,3.42377066612244,4.89119195938110,2.75742387771606,-4.95334529876709
245,1208248684,-9.06985950469971,-70.89900970458984,-41.75317764282227,9.48300170898438,-0.31819653511047,3.46356058120728,4.35511159896851,2.07465076446533,-4.44454383850098
246,1208257017,-8.93656539916992,-70.88840484619141,-41.85622787475586,9.50832080841064,-0.33148801326752,3.47427606582642,3.21824932098389,1.87639641761780,-3.89519500732422
247,1208265350,-8.79138088226318,-70.87532806396484,-41.97352218627930,9.53490924835205,-0.35206073522568,3.48294162750244,2.69515538215637,2.43289136886597,-3.39448785781860
248,1208273683,-8.68819046020508,-70.85350036621094,-42.05694198608398,9.45294094085693,-0.37800216674805,3.55361175537109,1.82862603664398,3.07401537895203,-2.93924641609192
249,1208282016,-8.58610630035400,-70.83309173583984,-42.15544128417969,9.34611320495605,-0.36867061257362,3.61974763870239,-0.33368942141533,3.15152406692505,-2.59824395179749
250,1208290349,-8.53438091278076,-70.81668090820312,-42.22261810302734,9.21223449707031,-0.37940147519112,3.67619657516479,-2.50493144989014,2.33138203620911,-2.41684412956238
251,1208298682,-8.46481513977051,-70.81104278564453,-42.32350921630859,9.14845180511475,-0.38278600573540,3.70802736282349,-4.70570659637451,1.45470929145813,-2.38413476943970
252,1208307015,-8.46624279022217,-70.80946350097656,-42.38459777832031,9.06069087982178,-0.53102982044220,3.75826668739319,-8.19638824462891,0.53175145387650,-2.43835973739624
253,1208315348,-8.43856620788574,-70.82942962646484,-42.48376846313477,8.93185234069824,-0.63964319229126,3.63877367973328,-9.67824840545654,-1.63307404518127,-2.39271545410156
254,1208323681,-8.48970794677734,-70.86179351806641,-42.52882766723633,8.91367721557617,-0.76100146770477,3.68638682365417,-12.34046649932861,-3.59399819374084,-2.40073323249817
255,1208332014,-8.52461814880371,-70.90666198730469,-42.60326004028320,8.98864841461182,-0.86352932453156,3.73210549354553,-14.25966548919678,-4.84289693832397,-2.22361040115356
256,1208340347,-8.63735485076904,-70.95732116699219,-42.61157608032227,9.08477783203125,-0.98854196071625,3.74582219123840,-15.57621097564697,-5.96907806396484,-1.30090880393982
257,1208348680,-8.74804210662842,-71.01315307617188,-42.62830352783203,9.13694763183594,-1.13442218303680,3.65483951568604,-16.88558959960938,-6.56686401367188,0.03168481588364
258,1208357013,-8.93694305419922,-71.06230163574219,-42.57304000854492,9.17957687377930,-1.20982003211975,3.58524560928345,-17.50606536865234,-6.16600084304810,1.15699529647827
259,1208365346,-9.17249202728271,-71.09465789794922,-42.48133468627930,9.32227325439453,-1.28156495094299,3.52534008026123,-18.95467758178711,-4.40755796432495,2.83214068412781
260,1208373679,-9.39418506622314,-71.09739685058594,-42.39767074584961,9.44559192657471,-1.39266240596771,3.45172095298767,-18.71170425415039,-0.96513187885284,4.56548261642456
261,1208382012,-9.65647125244141,-71.06266784667969,-42.26805877685547,9.51611232757568,-1.47849285602570,3.40165495872498,-18.14908790588379,3.18139171600342,6.39272689819336
262,1208390345,-9.95421886444092,-70.99474334716797,-42.09440994262695,9.49969482421875,-1.50227355957031,3.33648800849915,-17.12766838073730,6.86669254302979,8.00109672546387
263,1208398678,-10.25083255767822,-70.90036773681641,-41.90543365478516,9.46503257751465,-1.57209694385529,3.33051180839539,-15.25813579559326,9.83663749694824,9.20409393310547
264,1208407011,-10.51869487762451,-70.78859710693359,-41.72438812255859,9.46996307373047,-1.63409137725830,3.45427751541138,-12.91558647155762,11.82335567474365,9.89906120300293
265,1208415344,-10.77257061004639,-70.66484069824219,-41.54396438598633,9.57325077056885,-1.60502219200134,3.63888359069824,-11.30741977691650,13.17591667175293,10.18798923492432
266,1208423677,-11.02471256256104,-70.53359222412109,-41.34925079345703,9.67209625244141,-1.61520552635193,3.74758124351501,-9.32646560668945,13.98949909210205,10.53851795196533
267,1208432010,-11.25874710083008,-70.39926910400391,-41.15093231201172,9.76947498321533,-1.60848867893219,3.87102937698364,-6.76319742202759,14.27018165588379,10.85457324981689
268,1208440343,-11.46326446533203,-70.25974273681641,-40.96172714233398,9.82633590698242,-1.54153192043304,4.03253078460693,-4.34026956558228,14.83600044250488,10.93835735321045
269,1208448676,-11.64987754821777,-70.11686706542969,-40.78125762939453,9.83869266510010,-1.42893004417419,4.17433977127075,-3.15763449668884,15.26967525482178,10.66666698455811
270,1208457009,-11.82527160644531,-69.97376251220703,-40.61097335815430,9.80738735198975,-1.38073360919952,4.27799367904663,-2.95061945915222,15.38944435119629,10.25753021240234
271,1208465342,-11.99255180358887,-69.83454895019531,-40.44990921020508,9.75134849548340,-1.35388004779816,4.32223510742188,-3.03035688400269,14.96686267852783,9.88156509399414
272,1208473675,-12.15890407562256,-69.70047760009766,-40.29349517822266,9.62757492065430,-1.26964187622070,4.34948539733887,-3.48019361495972,14.30900955200195,9.72618770599365
273,1208482008,-12.32864665985107,-69.57294464111328,-40.14169692993164,9.53236961364746,-1.21426248550415,4.36827754974365,-4.43173694610596,13.53443527221680,9.45731544494629
274,1208490341,-12.51476287841797,-69.45067596435547,-39.98532485961914,9.41468143463135,-1.21349096298218,4.40062046051025,-5.86152458190918,12.90307140350342,9.50739097595215
275,1208498674,-12.71150493621826,-69.32819366455078,-39.82545852661133,9.38280868530273,-1.19363641738892,4.42318153381348,-6.75812530517578,12.85701560974121,9.73684406280518
276,1208507007,-12.92194652557373,-69.20572662353516,-39.65869522094727,9.37418079376221,-1.14262664318085,4.39693498611450,-7.69627285003662,12.62536334991455,10.21826362609863
277,1208515340,-13.17016315460205,-69.09634399414062,-39.46825408935547,9.22496891021729,-1.11398839950562,4.18966293334961,-9.59848880767822,10.75944137573242,10.95008945465088
278,1208523673,-13.46257972717285,-69.00730133056641,-39.24488830566406,9.04042053222656,-1.11632156372070,3.85932826995850,-11.15724277496338,8.17009735107422,11.72737789154053
279,1208532006,-13.78733634948730,-68.93288421630859,-38.99467086791992,8.84126186370850,-1.09675312042236,3.68212676048279,-12.05302429199219,6.12843799591064,12.51206874847412
280,1208540339,-14.11381340026855,-68.86389923095703,-38.74588775634766,8.68732929229736,-1.06213533878326,3.68151688575745,-12.62084197998047,4.78430461883545,12.73934459686279
281,1208548672,-14.45567512512207,-68.80350494384766,-38.48778915405273,8.61482238769531,-1.02136731147766,3.69587469100952,-13.42751026153564,3.61808872222900,12.88762569427490
282,1208557005,-14.82015514373779,-68.75099182128906,-38.21702575683594,8.54660511016846,-0.98971027135849,3.69426870346069,-14.55927753448486,3.10424113273621,12.91564941406250
283,1208565338,-15.19947242736816,-68.69821166992188,-37.94812011718750,8.49726200103760,-0.96008950471878,3.73466539382935,-16.55470275878906,3.06979012489319,12.88959884643555
284,1208573671,-15.58097648620605,-68.63860321044922,-37.69424438476562,8.45307540893555,-0.95705157518387,3.80582261085510,-18.60563659667969,3.53786516189575,12.70048999786377
285,1208582004,-15.97441768646240,-68.57660675048828,-37.44861602783203,8.41286945343018,-0.98048967123032,3.85698723793030,-20.95733451843262,3.87433481216431,12.44721889495850
286,1208590337,-16.37592887878418,-68.51754760742188,-37.21338272094727,8.35398864746094,-1.02988910675049,3.86153912544250,-23.02028274536133,3.91311454772949,11.83388614654541
287,1208598670,-16.77042007446289,-68.46075439453125,-36.99120712280273,8.37236499786377,-1.08169817924500,3.79877543449402,-23.64296722412109,3.72362017631531,11.25408172607422
288,1208607003,-17.13124847412109,-68.40176391601562,-36.79693603515625,8.44081020355225,-1.10582721233368,3.68893480300903,-22.80235671997070,3.91775083541870,10.32095432281494
289,1208615336,-17.46431541442871,-68.34011077880859,-36.62937545776367,8.50920295715332,-1.05941712856293,3.64273047447205,-22.46004486083984,4.50513648986816,9.32435417175293
290,1208623669,-17.79124259948730,-68.27777099609375,-36.48169708251953,8.56845283508301,-1.04207146167755,3.66042876243591,-23.87233924865723,5.12300348281860,8.45249748229980
291,1208632002,-18.11454963684082,-68.21280670166016,-36.35307312011719,8.59850215911865,-1.01123940944672,3.78688502311707,-25.57015991210938,5.63160085678101,7.78598976135254
292,1208640335,-18.44343757629395,-68.14346313476562,-36.24388885498047,8.61544895172119,-0.92082768678665,3.98224043846130,-28.51177597045898,5.90774822235107,7.30369997024536
293,1208648668,-18.78275108337402,-68.07051086425781,-36.15888977050781,8.65560245513916,-0.87474882602692,4.10258150100708,-32.51997756958008,6.31944799423218,6.54626178741455
294,1208657001,-19.14734077453613,-68.00161743164062,-36.07574462890625,8.71198558807373,-0.89918041229248,4.12301588058472,-35.60990524291992,6.57910060882568,6.16261196136475
295,1208665334,-19.49422454833984,-67.92064666748047,-36.02321243286133,8.69748306274414,-0.90603131055832,4.18067741394043,-37.17251586914062,7.08173084259033,5.73531627655029
296,1208673667,-19.84963607788086,-67.84972381591797,-35.96681213378906,8.69437503814697,-0.91477364301682,4.22871398925781,-37.49013137817383,7.12109994888306,5.21429634094238
297,1208682000,-20.17380905151367,-67.77417755126953,-35.93502044677734,8.72223567962646,-0.91367632150650,4.24282264709473,-36.82731246948242,6.46524667739868,4.80692768096924
298,1208690333,-20.50406074523926,-67.71730804443359,-35.88857269287109,8.79338264465332,-0.97638916969299,4.18671798706055,-35.58329772949219,5.62338113784790,4.30378532409668
299,1208698666,-20.79274940490723,-67.65914916992188,-35.87019348144531,8.88668060302734,-1.00589227676392,4.09400653839111,-34.11561965942383,4.42389059066772,3.65694832801819
300,1208706999,-21.08528327941895,-67.61904907226562,-35.83592605590820,8.94224071502686,-1.05927252769470,4.03235673904419,-32.41703414916992,3.88693809509277,3.13751626014709
301,1208715332,-21.32290077209473,-67.56906127929688,-35.83708953857422,8.97439861297607,-1.10205423831940,3.97489261627197,-30.18356895446777,3.73868203163147,2.55384373664856
302,1208723665,-21.55740547180176,-67.53441619873047,-35.82950210571289,8.97895908355713,-1.10098862648010,3.97376322746277,-28.41177940368652,3.68599367141724,1.80096375942230
303,1208731998,-21.74306678771973,-67.49260711669922,-35.85852432250977,9.00092601776123,-1.11536777019501,3.92667984962463,-27.04064559936523,3.29691290855408,1.04718744754791
304,1208740331,-21.93443298339844,-67.46725463867188,-35.88065338134766,9.06656455993652,-1.12463808059692,3.88505673408508,-26.53007125854492,3.14186930656433,0.14825527369976
305,1208748664,-22.07422256469727,-67.42742156982422,-35.95167160034180,9.10238075256348,-1.11883318424225,3.86562442779541,-26.18676948547363,3.85461211204529,-0.80839866399765
306,1208756997,-22.20428848266602,-67.39299011230469,-36.03684616088867,9.09436607360840,-1.11094176769257,3.92646241188049,-26.15851402282715,5.24185371398926,-2.11621093750000
307,1208765330,-22.28442573547363,-67.34173583984375,-36.17742156982422,9.06418132781982,-1.08459258079529,3.96946167945862,-26.68965339660645,6.51926279067993,-3.28283786773682
308,1208773663,-22.36476898193359,-67.29418182373047,-36.33103942871094,9.03784942626953,-1.05926442146301,4.04463005065918,-27.76727104187012,7.91139698028564,-4.44229269027710
309,1208781996,-22.39812660217285,-67.22872924804688,-36.54207611083984,8.99454879760742,-1.03715682029724,4.13588285446167,-28.88382530212402,9.31626415252686,-5.63312578201294
310,1208790329,-22.43174934387207,-67.16530609130859,-36.76736450195312,8.98513698577881,-0.98425495624542,4.20708751678467,-30.07417297363281,10.95616626739502,-6.81704282760620
311,1208798662,-22.41973686218262,-67.08092498779297,-37.05113601684570,8.94467258453369,-0.94582158327103,4.26433086395264,-31.47054100036621,12.70231914520264,-7.91983985900879
312,1208806995,-22.41032600402832,-66.99871826171875,-37.34506988525391,8.86271858215332,-0.96532005071640,4.28540134429932,-32.47518920898438,14.29173755645752,-8.98662471771240
313,1208815328,-22.35222434997559,-66.90271759033203,-37.68806838989258,8.73126029968262,-0.91948056221008,4.34773254394531,-32.50110244750977,14.85104656219482,-9.97745990753174
314,1208823661,-22.31290054321289,-66.82402038574219,-38.01675796508789,8.58729076385498,-0.85668301582336,4.44467639923096,-32.67592239379883,14.54229259490967,-10.77237319946289
315,1208831994,-22.27465820312500,-66.76072692871094,-38.34860610961914,8.47326755523682,-0.80122727155685,4.57067346572876,-33.12860870361328,12.91171646118164,-11.67210197448730
316,1208840327,-22.20779609680176,-66.70294189453125,-38.71036529541016,8.41717338562012,-0.76321357488632,4.72315454483032,-33.53592681884766,10.70507240295410,-12.61975193023682
317,1208848660,-22.14488029479980,-66.66749572753906,-39.07285308837891,8.40282726287842,-0.73804253339767,4.83234119415283,-34.03566741943359,8.43093585968018,-13.75390243530273
318,1208856993,-22.10834312438965,-66.66505432128906,-39.41278839111328,8.45956516265869,-0.73228853940964,4.90944051742554,-34.19375610351562,6.26143312454224,-14.87519073486328
319,1208865326,-22.03569602966309,-66.66367340087891,-39.79042816162109,8.49632644653320,-0.69121468067169,5.00540018081665,-34.66187667846680,4.38175582885742,-15.82094478607178
320,1208873659,-22.00827407836914,-66.69617462158203,-40.13733673095703,8.52757740020752,-0.66149413585663,5.03319501876831,-36.06895065307617,2.46253037452698,-16.75061988830566
321,1208881992,-21.93945312500000,-66.72366333007812,-40.52978134155273,8.58643054962158,-0.63379657268524,5.07054281234741,-36.77170181274414,1.37727940082550,-17.73431015014648
322,1208890325,-21.90995597839355,-66.77722930908203,-40.89999008178711,8.63299179077148,-0.56579387187958,5.14244985580444,-38.40415191650391,0.47040611505508,-18.67532730102539
323,1208898658,-21.85854911804199,-66.82378387451172,-41.30743408203125,8.68617439270020,-0.54016578197479,5.19620084762573,-40.40379333496094,-0.01709753088653,-19.34427261352539
324,1208906991,-21.83998680114746,-66.88745117187500,-41.70066452026367,8.76177597045898,-0.54355496168137,5.21114349365234,-42.29780578613281,-0.29767644405365,-20.06370735168457
325,1208915324,-21.83489227294922,-66.96101379394531,-42.09403228759766,8.86251258850098,-0.54580545425415,5.13564252853394,-43.93814849853516,-1.41192364692688,-20.47333526611328
326,1208923657,-21.82788085937500,-67.03527832031250,-42.50294113159180,8.96016502380371,-0.57049745321274,5.03923082351685,-45.79918670654297,-2.56326055526733,-20.69533538818359
327,1208931990,-21.83170890808105,-67.11434173583984,-42.90528488159180,9.00265598297119,-0.66981112957001,4.96184349060059,-46.32159423828125,-2.93218350410461,-20.65724945068359
328,1208940323,-21.85126686096191,-67.19720458984375,-43.29302978515625,9.00138568878174,-0.67989957332611,4.97120523452759,-46.35422515869141,-2.62604117393494,-20.47105789184570
329,1208948656,-21.87345314025879,-67.28192901611328,-43.68048095703125,8.90393543243408,-0.71682971715927,5.01596832275391,-46.66310119628906,-2.84309649467468,-20.49016571044922
330,1208956989,-21.88458824157715,-67.36443328857422,-44.07616424560547,8.81367301940918,-0.78305679559708,5.00424337387085,-46.53728485107422,-3.47899675369263,-20.35251235961914
331,1208965322,-21.88871002197266,-67.45263671875000,-44.46873092651367,8.76911735534668,-0.84095495939255,4.99875164031982,-45.48600006103516,-4.60958576202393,-20.27582550048828
332,1208973655,-21.91624069213867,-67.55764770507812,-44.83619689941406,8.75506591796875,-0.90396523475647,4.99391841888428,-45.17362594604492,-5.52078819274902,-20.35181808471680
333,1208981988,-21.94189834594727,-67.66466522216797,-45.20320510864258,8.72060871124268,-0.97901797294617,4.95102453231812,-44.93323898315430,-5.75756692886353,-20.36347579956055
334,1208990321,-21.93639945983887,-67.75889587402344,-45.60138320922852,8.69822025299072,-1.03660213947296,4.92720794677734,-45.17160415649414,-5.80287885665894,-20.41985130310059
335,1208998654,-21.91506958007812,-67.84881591796875,-46.01271057128906,8.64056205749512,-1.07861649990082,4.97884893417358,-44.86984252929688,-5.66192340850830,-20.57387161254883
336,1209006987,-21.92874908447266,-67.95217132568359,-46.39236068725586,8.66116905212402,-1.05789279937744,5.01294040679932,-44.99100494384766,-5.24446201324463,-20.51613998413086
337,1209015320,-21.93879699707031,-68.05334472656250,-46.77999114990234,8.69974708557129,-1.09729468822479,4.99294042587280,-45.46355819702148,-4.87574386596680,-20.69676780700684
338,1209023653,-21.90506362915039,-68.13400268554688,-47.20923614501953,8.77942180633545,-1.12880861759186,4.89925479888916,-45.51550674438477,-4.70822668075562,-20.65763282775879
339,1209031986,-21.87565803527832,-68.21368408203125,-47.63585281372070,8.88399028778076,-1.18084812164307,4.85793399810791,-45.66273880004883,-4.31012964248657,-20.57628059387207
340,1209040319,-21.89444732666016,-68.30931091308594,-48.02074432373047,8.97326850891113,-1.22577214241028,4.80339097976685,-46.29919815063477,-4.42406225204468,-20.12931251525879
341,1209048652,-21.93716812133789,-68.40907287597656,-48.38557815551758,9.02822113037109,-1.25013148784637,4.68687152862549,-46.95285797119141,-5.21408414840698,-19.43736839294434
342,1209056985,-21.98393821716309,-68.50212860107422,-48.75130844116211,9.09254169464111,-1.32931637763977,4.59792232513428,-47.93857574462891,-6.19726324081421,-18.68471908569336
343,1209065318,-22.04297065734863,-68.59801483154297,-49.09363174438477,9.27044200897217,-1.43914318084717,4.38740158081055,-46.77751922607422,-6.75877857208252,-17.85983085632324
344,1209073651,-22.10141944885254,-68.69499206542969,-49.41336822509766,9.47819995880127,-1.42754900455475,4.31686401367188,-43.88758087158203,-5.69043064117432,-17.29464912414551
345,1209081984,-22.14258575439453,-68.78150177001953,-49.73532867431641,9.70282268524170,-1.44658076763153,4.29465913772583,-42.08156585693359,-4.48635482788086,-16.87026977539062
346,1209090317,-22.14797973632812,-68.85522460937500,-50.06895065307617,9.92572879791260,-1.44449710845947,4.23352527618408,-39.31789779663086,-3.90024733543396,-16.50116539001465
347,1209098650,-22.14059448242188,-68.92224121093750,-50.39138793945312,10.13089084625244,-1.50363385677338,4.13510036468506,-36.43841171264648,-2.80961632728577,-15.82550716400146
348,1209106983,-22.10327148437500,-68.97692871093750,-50.71223068237305,10.29340457916260,-1.53352379798889,4.01036643981934,-32.59807968139648,-1.02322590351105,-15.25745582580566
349,1209115316,-22.02804374694824,-69.01531219482422,-51.03961944580078,10.35227394104004,-1.51824450492859,3.97546958923340,-28.78816223144531,0.87331819534302,-14.75928211212158
350,1209123649,-21.92107391357422,-69.04449462890625,-51.38122558593750,10.34491634368896,-1.58305108547211,3.84630537033081,-26.63010406494141,1.79376649856567,-14.83719825744629
351,1209131982,-21.79022598266602,-69.07611083984375,-51.72365951538086,10.32730007171631,-1.66237473487854,3.64386153221130,-23.81309318542480,1.79412448406219,-15.02092456817627
352,1209140315,-21.63236618041992,-69.11484527587891,-52.05962371826172,10.29439067840576,-1.70236134529114,3.49887323379517,-19.91304016113281,0.59058767557144,-15.01198577880859
353,1209148648,-21.44840240478516,-69.16967010498047,-52.38158798217773,10.26448059082031,-1.71316564083099,3.37934041023254,-15.17222881317139,-1.21735560894012,-15.18823719024658
354,1209156981,-21.22584533691406,-69.23947906494141,-52.70757293701172,10.18892383575439,-1.68491804599762,3.33606624603271,-11.04769134521484,-3.23465633392334,-15.90599822998047
355,1209165314,-20.96445274353027,-69.32385253906250,-53.04283142089844,10.10359382629395,-1.55247187614441,3.32599353790283,-7.47178888320923,-4.88370084762573,-16.83284759521484
356,1209173647,-20.67009925842285,-69.41825103759766,-53.40711593627930,10.04016208648682,-1.42680346965790,3.42752885818481,-6.72946453094482,-5.27014350891113,-18.39562606811523
357,1209181980,-20.34895706176758,-69.51054382324219,-53.81264495849609,9.98988246917725,-1.27895367145538,3.55267667770386,-8.17608165740967,-4.54382658004761,-19.84459877014160
358,1209190313,-20.01272392272949,-69.58943939208984,-54.27114868164062,9.91923332214355,-1.19572710990906,3.65918850898743,-12.43160629272461,-2.96995949745178,-21.19570159912109
359,1209198646,-19.67091751098633,-69.65381622314453,-54.77505111694336,9.79199409484863,-1.15929484367371,3.62118482589722,-16.90160369873047,-0.91964143514633,-22.30019187927246
360,1209206979,-19.34418106079102,-69.71143341064453,-55.29908752441406,9.59515380859375,-1.04878234863281,3.48655414581299,-20.90667343139648,0.61704742908478,-22.86050605773926
361,1209215312,-19.03187179565430,-69.75364685058594,-55.85285568237305,9.43359565734863,-0.94330585002899,3.35847759246826,-26.18818855285645,1.37684345245361,-23.18465995788574
362,1209223645,-18.79145812988281,-69.80904388427734,-56.39187240600586,9.17566776275635,-0.81551468372345,3.12611961364746,-32.99271011352539,0.79209572076797,-23.27047729492188
363,1209231978,-18.55883026123047,-69.84011077880859,-56.97956466674805,8.86576271057129,-0.63697314262390,2.86731696128845,-40.13961791992188,-0.97289437055588,-23.42355537414551
364,1209240311,-18.47735977172852,-69.93619537353516,-57.48635101318359,8.63402843475342,-0.61824417114258,2.45955657958984,-48.48888015747070,-4.48192596435547,-23.43945312500000
365,1209248644,-18.47100448608398,-70.05272674560547,-57.97750091552734,8.44408226013184,-0.49612861871719,2.09041714668274,-55.90536499023438,-8.03732490539551,-23.36652183532715
366,1209256977,-18.55843353271484,-70.19637298583984,-58.43474197387695,8.26679515838623,-0.38966083526611,1.79706645011902,-63.24304962158203,-10.59963703155518,-23.12307548522949
367,1209265310,-18.74106979370117,-70.36471557617188,-58.85517883300781,8.20913505554199,-0.32666277885437,1.66348028182983,-70.59511566162109,-14.18816566467285,-22.50284576416016
368,1209273643,-19.02294349670410,-70.56324768066406,-59.22466659545898,8.17710685729980,-0.31919193267822,1.53312253952026,-76.76380920410156,-17.91857910156250,-21.69893074035645
369,1209281976,-19.39783287048340,-70.80575561523438,-59.52224349975586,8.18562507629395,-0.32550433278084,1.45569157600403,-79.86652374267578,-23.98730659484863,-20.65656471252441
370,1209290309,-19.85202026367188,-71.09635162353516,-59.74203109741211,8.40970516204834,-0.30799305438995,1.37882065773010,-80.58287811279297,-30.13331985473633,-19.78081703186035
371,1209298642,-20.34692955017090,-71.38916015625000,-59.94620895385742,8.80422115325928,-0.11215627193451,1.22058427333832,-83.76499938964844,-30.70294380187988,-19.39981269836426
372,1209306975,-20.87628173828125,-71.63095092773438,-60.16928100585938,9.22307586669922,-0.11452843248844,0.88259345293045,-90.06311798095703,-24.34161567687988,-18.11915397644043
373,1209315308,-21.33963203430176,-71.76664733886719,-60.45558929443359,9.56765842437744,-0.21441140770912,0.34627714753151,-89.46567535400391,-12.18645763397217,-15.77147769927979
374,1209323641,-21.68658256530762,-71.77674102783203,-60.83047103881836,9.75687980651855,-0.36969575285912,0.08781751245260,-85.51054382324219,3.85040831565857,-13.49211692810059
375,1209331974,-21.77059555053711,-71.61522674560547,-61.39015579223633,9.82942485809326,-0.57374536991119,-0.00991537608206,-75.53102111816406,22.19511413574219,-11.73626422882080
376,1209340307,-21.69822692871094,-71.36168670654297,-62.00637054443359,9.81619739532471,-0.65151137113571,0.37336501479149,-62.59432601928711,36.76290130615234,-10.47981929779053
377,1209348640,-21.48599243164062,-71.03612518310547,-62.69044113159180,9.69974231719971,-0.89116519689560,1.21503996849060,-53.98720932006836,42.26374053955078,-9.44143390655518
378,1209356973,-21.36516761779785,-70.85184478759766,-63.18906021118164,8.99534988403320,-1.16970610618591,2.60182356834412,-43.20728683471680,27.51375007629395,-10.03748607635498
379,1209365306,-21.38443946838379,-70.86265563964844,-63.52981567382812,9.02311038970947,-0.86282092332840,3.70148873329163,-42.48790359497070,1.19529032707214,-12.43958663940430
380,1209373639,-21.63037300109863,-70.97657012939453,-63.80333709716797,10.09255695343018,-0.68059849739075,3.42203545570374,-61.69040679931641,-8.98987293243408,-14.92763328552246
381,1209381972,-21.88411712646484,-71.06282043457031,-64.11524963378906,10.67963123321533,-1.45243656635284,2.58935689926147,-67.20553588867188,-6.51560974121094,-14.83519840240479
382,1209390305,-22.01435852050781,-71.10194396972656,-64.43010711669922,10.80746650695801,-1.80290424823761,2.48022365570068,-52.52530670166016,0.01803246699274,-13.04921627044678
383,1209398638,-22.04198646545410,-71.07784271240234,-64.81159973144531,10.67284297943115,-1.49678170681000,3.13752388954163,-47.80870819091797,7.88149261474609,-12.57914161682129
384,1209406971,-22.10237312316895,-71.02690887451172,-65.23060607910156,10.23421287536621,-1.33321118354797,3.71850895881653,-55.95800781250000,11.59992599487305,-12.76882266998291
385,1209415304,-22.22541618347168,-70.98785400390625,-65.63809204101562,9.84054374694824,-1.45359218120575,3.69642567634583,-62.18519210815430,9.95436859130859,-12.87948608398438
386,1209423637,-22.39847564697266,-70.97536468505859,-65.99884796142578,9.66825580596924,-1.47324681282043,3.49373245239258,-62.84766387939453,6.54072189331055,-12.42047882080078
387,1209431970,-22.59668159484863,-70.97717285156250,-66.33946228027344,9.43385219573975,-1.44641840457916,3.40231275558472,-63.58174514770508,4.69664287567139,-12.33052062988281
388,1209440303,-22.80151367187500,-70.98987579345703,-66.66147613525391,9.26868343353271,-1.40689730644226,3.28123116493225,-62.36049652099609,2.66419696807861,-12.06100463867188
389,1209448636,-22.97566032409668,-70.99323272705078,-67.00569915771484,9.05274486541748,-1.30484616756439,3.25622296333313,-61.44935989379883,2.35393071174622,-12.22639465332031
390,1209456969,-23.18986511230469,-71.02513885498047,-67.31846618652344,8.72845554351807,-1.40013945102692,3.17441034317017,-62.35758590698242,1.05177569389343,-12.66199493408203
391,1209465302,-23.37632179260254,-71.06346893310547,-67.63139343261719,8.49080753326416,-1.42234456539154,2.90896248817444,-59.33569717407227,-1.63228487968445,-12.77143764495850
392,1209473635,-23.58222579956055,-71.13835906982422,-67.89133453369141,8.20808410644531,-1.45288562774658,2.75257158279419,-55.37399673461914,-4.43974065780640,-12.76897525787354
393,1209481968,-23.75569152832031,-71.23075866699219,-68.13440704345703,8.04724693298340,-1.50018548965454,2.61458849906921,-49.64064407348633,-6.97378683090210,-12.97249984741211
394,1209490301,-23.90731620788574,-71.33903503417969,-68.34492492675781,7.95239448547363,-1.44499385356903,2.61959767341614,-43.28274536132812,-8.82152080535889,-12.59114933013916
395,1209498634,-24.03808021545410,-71.45812988281250,-68.53862762451172,7.96315765380859,-1.40354752540588,2.67468214035034,-38.88032913208008,-10.25760746002197,-12.51079273223877
396,1209506967,-24.15321922302246,-71.58531188964844,-68.70930480957031,7.95589876174927,-1.37007296085358,2.71325349807739,-34.42512893676758,-11.69502639770508,-12.07772922515869
397,1209515300,-24.25382232666016,-71.71451568603516,-68.85617065429688,7.95939159393311,-1.32859361171722,2.74218869209290,-29.98097229003906,-12.27090930938721,-11.34136772155762
398,1209523633,-24.33648681640625,-71.84309387207031,-68.98018646240234,7.98848199844360,-1.28231942653656,2.76772141456604,-25.21780776977539,-12.35860729217529,-10.51620006561279
399,1209531966,-24.39402008056641,-71.96232604980469,-69.09483337402344,8.02210426330566,-1.18458604812622,2.81596183776855,-21.14570426940918,-11.47670936584473,-9.72346496582031
400,1209540299,-24.44051361083984,-72.07006072998047,-69.19709014892578,8.01668643951416,-1.12834453582764,2.89183545112610,-18.42387962341309,-10.63192272186279,-8.72033214569092
401,1209548632,-24.46235656738281,-72.16819000244141,-69.30093383789062,8.08807945251465,-1.15183329582214,2.95613503456116,-15.66537666320801,-9.57377243041992,-8.28337860107422
402,1209556965,-24.46147537231445,-72.25775146484375,-69.39704132080078,8.17461109161377,-1.19097638130188,3.06806874275208,-12.03524780273438,-8.53787994384766,-7.58357000350952
403,1209565298,-24.43658256530762,-72.33605194091797,-69.48736572265625,8.29852199554443,-1.16690206527710,3.28920173645020,-8.49538516998291,-7.40093946456909,-6.81713914871216
404,1209573631,-24.39162063598633,-72.39949035644531,-69.57175445556641,8.48009300231934,-1.19315528869629,3.45770382881165,-5.44334602355957,-6.18521070480347,-5.86508417129517
405,1209581964,-24.32896995544434,-72.44583129882812,-69.64811706542969,8.66199207305908,-1.15415811538696,3.63738751411438,-2.44471263885498,-4.80949592590332,-4.73997879028320
406,1209590297,-24.27221870422363,-72.48163604736328,-69.69976043701172,8.83004093170166,-1.17390859127045,3.73805761337280,-0.25784569978714,-3.36398172378540,-3.39146590232849
407,1209598630,-24.21457672119141,-72.50875854492188,-69.72492218017578,8.90615081787109,-1.19775533676147,3.74682617187500,2.87530064582825,-2.80820393562317,-2.09284949302673
408,1209606963,-24.13331604003906,-72.51517486572266,-69.74398040771484,9.05949878692627,-1.13069272041321,3.79384565353394,6.13343095779419,-3.16818618774414,-0.82440692186356
409,1209615296,-24.04533386230469,-72.50570678710938,-69.75249481201172,9.15841865539551,-1.06479597091675,3.81242394447327,7.95631933212280,-3.27089929580688,0.33979842066765
410,1209623629,-24.01763153076172,-72.52507781982422,-69.68302917480469,9.15876388549805,-1.01622605323792,3.77746748924255,10.10620117187500,-3.38872551918030,1.43995559215546
411,1209631962,-23.99664688110352,-72.54534912109375,-69.57931518554688,9.14610004425049,-0.93799430131912,3.80095458030701,13.23126792907715,-3.96179318428040,2.50184559822083
412,1209640295,-23.93928718566895,-72.54023742675781,-69.48974609375000,9.12864017486572,-0.87049609422684,3.88197302818298,15.58163261413574,-4.38868045806885,3.41706848144531
413,1209648628,-23.88658523559570,-72.53615570068359,-69.37716674804688,9.17702579498291,-0.85992205142975,3.92749333381653,17.63522720336914,-5.00219249725342,4.17886066436768
414,1209656961,-23.88574409484863,-72.56151580810547,-69.19203948974609,9.33242416381836,-0.87318319082260,3.86399459838867,20.12281036376953,-5.73732280731201,4.97026538848877
415,1209665294,-23.88569259643555,-72.58493041992188,-68.98332977294922,9.51187705993652,-0.85805767774582,3.82243609428406,22.73497390747070,-5.84154653549194,5.81220531463623
416,1209673627,-23.85481262207031,-72.58368682861328,-68.78874206542969,9.69391536712646,-0.83883190155029,3.78138756752014,24.48753166198730,-5.46389102935791,6.75578451156616
417,1209681960,-23.84410667419434,-72.58080291748047,-68.56613922119141,9.83289337158203,-0.76607865095139,3.75303292274475,25.46810150146484,-4.24122095108032,7.66083908081055
418,1209690293,-23.84920120239258,-72.56812286376953,-68.32881927490234,9.94686317443848,-0.75997692346573,3.70308470726013,25.38124084472656,-2.30596160888672,8.52129840850830
419,1209698626,-23.85948944091797,-72.53280639648438,-68.09027099609375,9.96333408355713,-0.74592083692551,3.69979310035706,24.89933013916016,0.16188207268715,9.66753482818604
420,1209706959,-23.87336540222168,-72.47266387939453,-67.86608886718750,9.97115898132324,-0.70983541011810,3.72442746162415,22.74307060241699,2.45118117332458,10.50209712982178
421,1209715292,-23.89852142333984,-72.38781738281250,-67.65453338623047,9.97383022308350,-0.74963843822479,3.79486060142517,19.93141746520996,5.40411949157715,11.31683540344238
422,1209723625,-23.94084167480469,-72.28229522705078,-67.44928741455078,9.92646789550781,-0.77169668674469,3.84751391410828,17.22179031372070,8.29209995269775,12.07424926757812
423,1209731958,-23.99333381652832,-72.15299987792969,-67.26183319091797,9.84327125549316,-0.77641183137894,3.89040803909302,13.95323371887207,11.13476943969727,12.68558406829834
424,1209740291,-24.04100036621094,-71.99486541748047,-67.10385131835938,9.62410640716553,-0.81559270620346,3.98751163482666,11.05103397369385,14.17033672332764,13.25521659851074
425,1209748624,-24.07514762878418,-71.80881500244141,-66.97663116455078,9.40883922576904,-0.91897433996201,4.14011001586914,9.10601806640625,17.42529487609863,13.68597412109375
426,1209756957,-24.11081886291504,-71.61002349853516,-66.85505676269531,9.22601604461670,-1.06983232498169,4.39599895477295,8.39653015136719,19.65330123901367,14.03030776977539
427,1209765290,-24.09873390197754,-71.38645935058594,-66.77690124511719,9.22887325286865,-1.28148138523102,4.75925827026367,8.91662883758545,21.52306747436523,14.07631206512451
428,1209773623,-24.07309722900391,-71.16683959960938,-66.69677734375000,9.48858928680420,-1.49196851253510,5.08263349533081,11.00150012969971,22.54223060607910,13.69045829772949
429,1209781956,-24.01736450195312,-70.95088958740234,-66.64158630371094,10.01526165008545,-1.58415842056274,5.26676940917969,11.67525863647461,21.88988876342773,12.75720405578613
430,1209790289,-23.94743728637695,-70.74170684814453,-66.60595703125000,10.70863437652588,-1.58045256137848,5.11006021499634,11.24537181854248,22.11242103576660,11.59987354278564
431,1209798622,-23.80367088317871,-70.51719665527344,-66.65090179443359,11.36321353912354,-1.47643029689789,4.82224321365356,10.96261882781982,24.95269012451172,9.40960121154785
432,1209806955,-23.58904457092285,-70.28014373779297,-66.79584503173828,12.01306724548340,-1.20976507663727,4.48163223266602,8.19361495971680,28.13318252563477,6.20300340652466
433,1209815288,-23.40396118164062,-70.07920074462891,-66.98299407958984,12.62777805328369,-0.99177807569504,3.88069748878479,-0.10313577950001,24.82220458984375,2.75629806518555
434,1209823621,-23.34465026855469,-69.97191619873047,-67.14576721191406,13.22472000122070,-0.87255728244781,2.56067276000977,-12.41380214691162,14.20827198028564,-0.90442609786987
435,1209831954,-23.41417884826660,-69.96672058105469,-67.26949310302734,13.72362995147705,-1.08135843276978,0.88644492626190,-23.47188377380371,2.28274154663086,-4.29672574996948
436,1209840287,-23.55348396301270,-70.03327178955078,-67.35982513427734,13.82038688659668,-1.29281079769135,-0.35476160049438,-28.08232879638672,-6.10394048690796,-6.47242736816406
437,1209848620,-23.77197074890137,-70.13749694824219,-67.41788482666016,13.19281959533691,-1.30842947959900,-0.47582247853279,-33.94554901123047,-10.79529762268066,-7.07282781600952
438,1209856953,-24.11685943603516,-70.27436065673828,-67.43221282958984,12.15504932403564,-1.55417299270630,-0.14986351132393,-44.17909240722656,-15.03334236145020,-7.08515357971191
439,1209865286,-24.62347602844238,-70.46795654296875,-67.32577514648438,11.32498645782471,-1.84241354465485,-0.09596680849791,-49.95207977294922,-23.23961257934570,-5.55224609375000
440,1209873619,-25.27409744262695,-70.74015045166016,-67.07453918457031,10.49302482604980,-1.90870869159698,0.13902258872986,-50.81381988525391,-34.09791946411133,-4.58602523803711
441,1209881952,-26.08011436462402,-71.11204528808594,-66.65789794921875,9.62826251983643,-1.96026170253754,0.38270843029022,-50.64064407348633,-47.56459426879883,-4.50104284286499
442,1209890285,-27.00246620178223,-71.53940582275391,-66.08626556396484,9.30452156066895,-1.80249738693237,0.29439756274223,-46.92868804931641,-56.17715454101562,-3.09015393257141
443,1209898618,-27.91483879089355,-71.89804840087891,-65.59610748291016,9.08258533477783,-1.39552474021912,0.50854825973511,-55.40714645385742,-49.79394531250000,-2.63457775115967
444,1209906951,-28.67490959167480,-72.12197875976562,-65.36019134521484,8.66439342498779,-1.62883484363556,0.12727798521519,-65.46450042724609,-28.07943725585938,-4.90869569778442
445,1209915284,-28.91820526123047,-72.15022277832031,-65.51380157470703,8.36268424987793,-2.21316480636597,-0.55957144498825,-48.00241851806641,-0.92043662071228,-6.37018346786499
446,1209923617,-28.71601104736328,-72.07888793945312,-65.78237915039062,8.31774997711182,-2.43312025070190,-0.51131945848465,-7.59348249435425,12.00916004180908,-4.42395114898682
447,1209931950,-28.41951370239258,-72.04539489746094,-65.87763214111328,8.42766571044922,-2.22841739654541,-0.28304281830788,23.49851036071777,4.75677061080933,-1.01372230052948
448,1209940283,-27.84262466430664,-71.94823455810547,-66.02944183349609,8.77201461791992,-2.16809725761414,-0.08958433568478,50.73103332519531,12.66790866851807,0.65298527479172
449,1209948616,-26.86834526062012,-71.70941162109375,-66.40711975097656,9.13561344146729,-1.97289526462555,0.24337062239647,72.63494110107422,31.44897079467773,0.77557766437531
450,1209956949,-25.66138648986816,-71.33826446533203,-66.95952606201172,9.42961311340332,-1.72710239887238,0.99248123168945,80.78529357910156,48.97544097900391,0.99158614873886
451,1209965282,-24.36966323852539,-70.84716033935547,-67.64503479003906,9.53350925445557,-1.58647406101227,1.77071654796600,75.84438323974609,63.44573593139648,1.03577172756195
452,1209973615,-23.17708778381348,-70.33036804199219,-68.30630493164062,9.37473011016846,-1.67824876308441,2.32272911071777,67.08789825439453,67.11717224121094,0.98917829990387
453,1209981948,-22.13155746459961,-69.91064453125000,-68.84750366210938,8.89331340789795,-1.94632613658905,2.98220753669739,62.90276336669922,52.89401626586914,-0.57784777879715
454,1209990281,-21.34583091735840,-69.74506378173828,-69.15647125244141,8.84783840179443,-1.85357356071472,3.57725548744202,58.30667495727539,22.91239547729492,-4.38600444793701
455,1209998614,-20.81667900085449,-69.72370147705078,-69.40763854980469,9.93966770172119,-1.28422594070435,3.45433807373047,33.84263992309570,4.45900726318359,-8.53268623352051
456,1210006947,-20.59292221069336,-69.73709106445312,-69.63739776611328,11.15462303161621,-1.24276208877563,2.76693367958069,-0.19644843041897,1.59574174880981,-9.37341690063477
457,1210015280,-20.52881622314453,-69.70457458496094,-69.86050415039062,11.60070514678955,-1.54937517642975,1.88303911685944,-18.61326789855957,6.53939294815063,-7.17755889892578
458,1210023613,-20.45859909057617,-69.60836791992188,-70.07285308837891,11.42280864715576,-1.70383346080780,1.08897316455841,-16.64801788330078,13.64522171020508,-4.12856817245483
459,1210031946,-20.32031822204590,-69.45276641845703,-70.30536651611328,10.99987888336182,-1.22875916957855,0.96520316600800,-10.73583889007568,20.59656906127930,-2.51102828979492
460,1210040279,-20.20121574401855,-69.27004241943359,-70.56098175048828,10.38394260406494,-0.76818227767944,1.57023739814758,-15.59816837310791,24.04222679138184,-2.42330026626587
461,1210048612,-20.18927764892578,-69.14285278320312,-70.76668548583984,9.71516799926758,-0.58977454900742,2.07136750221252,-22.82467079162598,17.07825088500977,-2.82746791839600
462,1210056945,-20.28512382507324,-69.10634613037109,-70.90061950683594,9.44836902618408,-0.47774621844292,2.19418835639954,-27.71340370178223,5.73090648651123,-3.71989393234253
463,1210065278,-20.44216537475586,-69.13276672363281,-70.98966979980469,9.51543140411377,-0.40822228789330,2.10381937026978,-30.16437911987305,-2.68564152717590,-4.34467649459839
464,1210073611,-20.62133598327637,-69.18276977539062,-71.05528259277344,9.49121379852295,-0.44254717230797,2.07162332534790,-30.04886817932129,-4.90855026245117,-4.59513378143311
465,1210081944,-20.76937103271484,-69.22412872314453,-71.13552856445312,9.35902786254883,-0.59618735313416,2.12983131408691,-27.94452476501465,-3.71203017234802,-4.82368898391724
466,1210090277,-20.86230468750000,-69.25020599365234,-71.25094604492188,9.14133262634277,-0.64417886734009,2.37541627883911,-25.43332099914551,-1.96839070320129,-5.30562019348145
467,1210098610,-20.94990539550781,-69.27693939208984,-71.37734222412109,8.87124538421631,-0.73828250169754,2.65379047393799,-25.98090362548828,-1.55093014240265,-5.84124040603638
468,1210106943,-21.06015777587891,-69.31214904785156,-71.51621246337891,8.69632720947266,-0.83601701259613,2.90716934204102,-29.99861145019531,-2.11124229431152,-6.88302421569824
469,1210115276,-21.22398376464844,-69.36029052734375,-71.65837860107422,8.67532730102539,-0.95594531297684,3.09227275848389,-36.81139755249023,-3.48875212669373,-7.56772184371948
470,1210123609,-21.44622230529785,-69.40910339355469,-71.82415771484375,8.60825538635254,-1.01602900028229,3.12516188621521,-46.50766372680664,-3.25604915618896,-8.43728160858154
471,1210131942,-21.75842094421387,-69.46555328369141,-71.98610687255859,8.70182991027832,-1.19097614288330,2.97996616363525,-56.89139175415039,-4.12760543823242,-8.61912631988525
472,1210140275,-22.12038421630859,-69.50608062744141,-72.18553161621094,8.58227062225342,-1.21184158325195,2.61805129051208,-67.03260803222656,-1.65546751022339,-9.46453666687012
473,1210148608,-22.54097366333008,-69.53699493408203,-72.40020751953125,8.54071426391602,-1.30352544784546,2.37456917762756,-75.79161834716797,-0.28064379096031,-9.61697769165039
474,1210156941,-22.95945549011230,-69.54713439941406,-72.65287017822266,8.49479484558105,-1.37886667251587,2.02603173255920,-79.83983612060547,2.64594006538391,-10.03959560394287
475,1210165274,-23.31793212890625,-69.54026031494141,-72.96987915039062,8.41033172607422,-1.44257485866547,1.81558156013489,-79.85974884033203,5.68506097793579,-11.73424339294434
476,1210173607,-23.61217689514160,-69.52463531494141,-73.32445526123047,8.41721057891846,-1.38729774951935,1.82104814052582,-76.35498809814453,7.36840915679932,-12.76964759826660
477,1210181940,-23.84992027282715,-69.51021575927734,-73.71788787841797,8.46552467346191,-1.25843417644501,2.06098937988281,-73.94136047363281,7.95520687103271,-14.29812908172607
478,1210190273,-24.05403518676758,-69.50567626953125,-74.15306091308594,8.51154136657715,-1.17188692092896,2.33182477951050,-74.60872650146484,7.64143133163452,-16.33283424377441
479,1210198606,-24.23686790466309,-69.51773834228516,-74.62889862060547,8.56383419036865,-1.16248989105225,2.52722787857056,-76.61783599853516,6.58304929733276,-18.66889762878418
480,1210206939,-24.40887260437012,-69.55235290527344,-75.13645172119141,8.69145965576172,-1.08985412120819,2.64329290390015,-78.89112854003906,4.71202182769775,-20.98461914062500
481,1210215272,-24.57404899597168,-69.60263061523438,-75.67653656005859,8.81401824951172,-1.04261469841003,2.64549088478088,-81.74168395996094,3.60888934135437,-22.94981956481934
482,1210223605,-24.72208213806152,-69.65835571289062,-76.25435638427734,8.87213897705078,-1.01163244247437,2.58803820610046,-83.97167205810547,3.72889399528503,-24.54481124877930
483,1210231938,-24.85299873352051,-69.71996307373047,-76.86659240722656,8.90079975128174,-0.95318001508713,2.50461673736572,-85.81975555419922,3.73875713348389,-26.03102302551270
484,1210240271,-24.97255897521973,-69.78308868408203,-77.50859069824219,8.93013763427734,-0.87412929534912,2.47414803504944,-87.81113433837891,4.08311796188354,-27.24369049072266
485,1210248604,-25.07509994506836,-69.84014892578125,-78.19092559814453,8.94776535034180,-0.77807629108429,2.46723866462708,-90.34349822998047,5.47646856307983,-28.36886787414551
486,1210256937,-25.16335487365723,-69.88801574707031,-78.92784881591797,8.96638870239258,-0.73149901628494,2.52894854545593,-94.83713531494141,7.50398588180542,-29.75724983215332
487,1210265270,-25.23844146728516,-69.92641448974609,-79.72143554687500,9.05646419525146,-0.66046464443207,2.55660843849182,-99.67358398437500,9.57010936737061,-31.28631401062012
488,1210273603,-25.30605125427246,-69.94933319091797,-80.57919311523438,9.14261436462402,-0.56668788194656,2.57854628562927,-105.98196411132812,12.31217861175537,-32.97301101684570
489,1210281936,-25.39108276367188,-69.95778656005859,-81.49498748779297,9.24080467224121,-0.49757051467896,2.60282135009766,-114.62759399414062,14.93533897399902,-34.34591293334961
490,1210290269,-25.50807380676270,-69.95929718017578,-82.45597076416016,9.28130626678467,-0.56928813457489,2.48392629623413,-123.64348602294922,16.70126533508301,-35.35189437866211
491,1210298602,-25.63895606994629,-69.94690704345703,-83.47219848632812,9.30096149444580,-0.57343262434006,2.37284779548645,-131.59750366210938,19.40141677856445,-36.40982437133789
492,1210306935,-25.80583000183105,-69.91206359863281,-84.52701568603516,9.30946159362793,-0.78023391962051,2.28941559791565,-140.11094665527344,22.35440254211426,-37.18841171264648
493,1210315268,-25.95687103271484,-69.86111450195312,-85.63896179199219,9.27047348022461,-1.00449359416962,2.14203858375549,-144.77479553222656,25.60345649719238,-37.90119171142578
494,1210323601,-26.09577941894531,-69.78755950927734,-86.77825927734375,9.21092700958252,-1.24662613868713,2.07356452941895,-146.18284606933594,28.35280609130859,-38.36757659912109
495,1210331934,-26.22100448608398,-69.70747375488281,-87.93360137939453,9.19242954254150,-1.46138441562653,2.11392760276794,-146.29008483886719,29.51574325561523,-38.70828247070312
496,1210340267,-26.35794448852539,-69.64260101318359,-89.06458282470703,9.17693805694580,-1.72631788253784,2.20438814163208,-145.02047729492188,27.90973663330078,-38.19635391235352
497,1210348600,-26.50333786010742,-69.59487152099609,-90.16307067871094,9.15668296813965,-1.90293407440186,2.27379679679871,-142.32415771484375,25.68810081481934,-37.93014526367188
498,1210356933,-26.65251541137695,-69.54854583740234,-91.25288391113281,9.17074680328369,-1.96012902259827,2.34057950973511,-141.63948059082031,25.12802696228027,-38.20454406738281
499,1210365266,-26.79255485534668,-69.49994659423828,-92.36663055419922,9.20201683044434,-2.02217411994934,2.40600228309631,-143.33322143554688,26.49353599548340,-38.43194198608398
500,1210373599,-26.93374252319336,-69.43096923828125,-93.49337005615234,9.15355968475342,-2.18238186836243,2.42440962791443,-144.74908447265625,28.55448913574219,-38.43754577636719
501,1210381932,-27.04051208496094,-69.35905456542969,-94.64488983154297,9.06303119659424,-2.25848126411438,2.38154411315918,-143.46640014648438,30.13588523864746,-38.68584442138672
502,1210390265,-27.11657905578613,-69.26817321777344,-95.81128692626953,9.06530666351318,-2.23151707649231,2.41572070121765,-141.25639343261719,31.95864677429199,-38.93070602416992
503,1210398598,-27.15627288818359,-69.16856384277344,-97.00992584228516,9.11460781097412,-2.17516660690308,2.55620884895325,-140.50817871093750,34.20736312866211,-39.40927124023438
504,1210406931,-27.18014526367188,-69.05797576904297,-98.23075103759766,9.18865299224854,-2.06064534187317,2.74174714088440,-140.92216491699219,35.39666366577148,-40.27935791015625
505,1210415264,-27.21231269836426,-68.95702362060547,-99.46489715576172,9.31991863250732,-2.01824831962585,2.86369991302490,-143.38240051269531,35.46195220947266,-41.05203247070312
506,1210423597,-27.28359794616699,-68.86038208007812,-100.69713592529297,9.44384384155273,-2.05037069320679,2.82219791412354,-147.70507812500000,34.41629028320312,-41.86946868896484
507,1210431930,-27.38906478881836,-68.77640533447266,-101.91725158691406,9.59313201904297,-2.06215143203735,2.61183238029480,-150.39212036132812,33.48386001586914,-41.93037414550781
508,1210440263,-27.50898361206055,-68.68420410156250,-103.12688446044922,9.73705863952637,-2.10899710655212,2.34556984901428,-150.84364318847656,33.83520126342773,-41.49918746948242
509,1210448596,-27.63092803955078,-68.59022521972656,-104.32173919677734,9.88936710357666,-2.04731988906860,2.11205697059631,-149.35948181152344,34.22165679931641,-40.79317855834961
510,1210456929,-27.76499176025391,-68.49562072753906,-105.48703765869141,10.03538131713867,-1.85705566406250,1.93461847305298,-147.42082214355469,33.57355880737305,-39.88664627075195
511,1210465262,-27.93955421447754,-68.42192840576172,-106.61426544189453,10.18704795837402,-1.67397689819336,1.78201246261597,-147.94165039062500,30.99096679687500,-39.56005096435547
512,1210473595,-28.16948509216309,-68.38646697998047,-107.69589233398438,10.35546016693115,-1.50635135173798,1.58917248249054,-149.46412658691406,25.96660804748535,-40.02798843383789
513,1210481928,-28.47760009765625,-68.41557312011719,-108.70668029785156,10.45657920837402,-1.26012480258942,1.38845014572144,-150.92262268066406,18.02769279479980,-40.76861953735352
514,1210490261,-28.88202476501465,-68.51824188232422,-109.63378143310547,10.38463783264160,-0.97165250778198,1.13389050960541,-153.20841979980469,8.53544235229492,-41.60967636108398
515,1210498594,-29.40209007263184,-68.70822143554688,-110.47360992431641,10.21947288513184,-0.66473323106766,0.90300464630127,-157.42724609375000,-2.05934357643127,-42.99582290649414
516,1210506927,-30.04228782653809,-68.98181152343750,-111.22026062011719,9.97925186157227,-0.43572276830673,0.64422452449799,-161.57138061523438,-12.73582839965820,-44.23215866088867
517,1210515260,-30.77815437316895,-69.34015655517578,-111.87827301025391,9.82693099975586,-0.29671552777290,0.34092614054680,-163.24589538574219,-22.31306838989258,-45.53896331787109
518,1210523593,-31.55632209777832,-69.74508666992188,-112.47495269775391,9.83181381225586,-0.21624314785004,0.06622377783060,-161.64875793457031,-28.88354110717773,-46.44031524658203
519,1210531926,-32.33153915405273,-70.19709014892578,-113.03098297119141,9.98541927337646,-0.19416600465775,-0.13412216305733,-156.80950927734375,-32.14110565185547,-47.07361984252930
520,1210540259,-32.98839187622070,-70.60630035400391,-113.66134643554688,10.29883480072021,-0.18444168567657,-0.26606425642967,-151.26501464843750,-27.89959716796875,-47.74772644042969
521,1210548592,-33.49530029296875,-70.97691345214844,-114.36635589599609,10.50534057617188,-0.24272856116295,-0.21246333420277,-141.85211181640625,-21.08182144165039,-47.02776718139648
522,1210556925,-33.79414367675781,-71.27422332763672,-115.20788574218750,10.57980918884277,-0.14272223412991,-0.09294061362743,-132.59313964843750,-11.85295200347900,-46.84766006469727
523,1210565258,-33.90972900390625,-71.51661682128906,-116.17562866210938,10.58771610260010,-0.01119528524578,0.03866846859455,-125.09944915771484,-3.34969043731689,-46.64954757690430
524,1210573591,-33.85382461547852,-71.71357727050781,-117.25583648681641,10.57311344146729,0.08979883044958,0.12791422009468,-117.47837066650391,2.91781020164490,-47.00049209594727
525,1210581924,-33.67153167724609,-71.89839172363281,-118.39093780517578,10.66058921813965,0.28622615337372,0.25383523106575,-108.69939422607422,5.38517856597900,-47.34073257446289
526,1210590257,-33.40360641479492,-72.07185363769531,-119.57628631591797,10.93229579925537,0.69010764360428,0.48269301652908,-104.29993438720703,6.70447587966919,-48.05103302001953
527,1210598590,-33.06602478027344,-72.23423767089844,-120.84431457519531,11.24922466278076,0.89535802602768,0.55834668874741,-105.51693725585938,9.01086330413818,-49.56466293334961
528,1210606923,-32.66436767578125,-72.38793945312500,-122.18052673339844,11.52565860748291,1.01636302471161,0.49750554561615,-105.72788238525391,10.98679733276367,-50.64550781250000
529,1210615256,-32.15728378295898,-72.51007080078125,-123.61495208740234,11.73762702941895,1.13512814044952,0.45289278030396,-104.44774627685547,15.32667160034180,-51.48011016845703
530,1210623589,-31.51597213745117,-72.57787322998047,-125.18177032470703,11.77658462524414,1.20025694370270,0.52243804931641,-103.58520507812500,22.59195709228516,-52.08919906616211
531,1210631922,-30.74316406250000,-72.58115386962891,-126.88554382324219,11.63365745544434,1.14690387248993,0.75078821182251,-103.52323150634766,31.05739974975586,-52.47876358032227
532,1210640255,-29.87901496887207,-72.53463745117188,-128.68426513671875,11.28753376007080,1.12926542758942,1.13875722885132,-103.41320800781250,37.31924819946289,-52.85493850708008
533,1210648588,-29.00143051147461,-72.47406768798828,-130.49398803710938,10.77236557006836,1.16223537921906,1.61276972293854,-102.99949645996094,38.30239105224609,-53.07035064697266
534,1210656921,-28.19317626953125,-72.44282531738281,-132.23405456542969,10.20170593261719,1.20741498470306,2.08076763153076,-103.28401947021484,33.16134262084961,-53.34645462036133
535,1210665254,-27.52426147460938,-72.48471832275391,-133.84182739257812,9.73341846466064,1.24594724178314,2.45279145240784,-104.87814331054688,22.47198867797852,-53.62673568725586
536,1210673587,-27.03030395507812,-72.62757873535156,-135.29447937011719,9.39310550689697,1.30677771568298,2.70099592208862,-108.25633239746094,8.92649745941162,-53.80251312255859
537,1210681920,-26.69208908081055,-72.89231872558594,-136.62832641601562,9.27264022827148,1.30577397346497,2.71851181983948,-113.90058898925781,-3.88182759284973,-53.55416107177734
538,1210690253,-26.54097747802734,-73.18341827392578,-137.82395935058594,9.35928440093994,1.29160416126251,2.54884982109070,-120.27336120605469,-12.70651054382324,-52.97796249389648
539,1210698586,-26.49311065673828,-73.49536132812500,-138.96414184570312,9.43765544891357,1.20989620685577,2.28292131423950,-126.50878143310547,-16.23560905456543,-51.69916152954102
540,1210706919,-26.42025947570801,-73.83878326416016,-140.17457580566406,9.46623706817627,1.12470114231110,2.00817799568176,-132.50999450683594,-15.01024723052979,-50.62155914306641
541,1210715252,-26.35449409484863,-74.15396118164062,-141.43084716796875,9.49185562133789,1.11284077167511,1.89753270149231,-138.92262268066406,-11.91375637054443,-49.59202194213867
542,1210723585,-26.38873863220215,-74.40499114990234,-142.64245605468750,9.40745544433594,1.06787073612213,1.84158873558044,-145.23628234863281,-9.68715953826904,-48.60085296630859
543,1210731918,-26.47805595397949,-74.64971160888672,-143.85539245605469,9.31250095367432,1.08794951438904,1.84522998332977,-152.17062377929688,-9.24319553375244,-47.74527740478516
544,1210740251,-26.55756187438965,-74.92961120605469,-145.13635253906250,9.28151416778564,1.15650153160095,1.77984905242920,-159.73603820800781,-9.21980094909668,-46.87375640869141
545,1210748584,-26.70504188537598,-75.18592071533203,-146.40745544433594,9.23997974395752,1.18141913414001,1.62414169311523,-166.73931884765625,-8.16924858093262,-46.09420013427734
546,1210756917,-26.90871810913086,-75.39861297607422,-147.65684509277344,9.28186416625977,1.22998392581940,1.42205369472504,-170.61607360839844,-5.81429672241211,-45.41876220703125
547,1210765250,-27.06801986694336,-75.58485412597656,-148.95765686035156,9.34799098968506,1.19975030422211,1.24674308300018,-171.41053771972656,-2.37614464759827,-44.90553283691406
548,1210773583,-27.09566116333008,-75.75376129150391,-150.36648559570312,9.50205039978027,1.08266437053680,1.14016354084015,-168.68432617187500,2.14399456977844,-44.10529708862305
549,1210781916,-26.98983001708984,-75.89072418212891,-151.86247253417969,9.64355182647705,0.96896624565125,1.12125372886658,-163.11042785644531,7.01191806793213,-43.19924163818359
550,1210790249,-26.87025833129883,-75.96274566650391,-153.32597351074219,9.73062801361084,0.81694751977921,1.21645414829254,-157.15629577636719,11.44696140289307,-41.93303680419922
551,1210798582,-26.68990135192871,-76.00585937500000,-154.80461120605469,9.76424598693848,0.65655934810638,1.41667151451111,-151.67416381835938,14.53770256042480,-40.62323760986328
552,1210806915,-26.35333251953125,-76.07430267333984,-156.39086914062500,9.80061912536621,0.49194201827049,1.62251925468445,-146.53024291992188,15.69430255889893,-39.09690856933594
553,1210815248,-26.04765129089355,-76.13946533203125,-157.91348266601562,9.89822578430176,0.35404342412949,1.82281470298767,-142.77893066406250,14.49441623687744,-37.72660446166992
554,1210823581,-25.92535209655762,-76.18139648437500,-159.23388671875000,10.06394386291504,0.22911815345287,1.94833278656006,-140.31826782226562,11.92413520812988,-36.24127197265625
555,1210831914,-25.87680435180664,-76.23667907714844,-160.46739196777344,10.23438835144043,0.13784302771091,2.00989675521851,-139.08892822265625,9.26295471191406,-34.58002853393555
556,1210840247,-25.82465171813965,-76.31198120117188,-161.69689941406250,10.42674064636230,-0.01807230152190,1.95192372798920,-138.69067382812500,7.94546175003052,-32.89451980590820
557,1210848580,-25.83579444885254,-76.37020874023438,-162.84928894042969,10.58685684204102,-0.20441079139709,1.82967209815979,-137.04783630371094,8.11871337890625,-31.45610809326172
558,1210856913,-25.88023757934570,-76.40283966064453,-163.94662475585938,10.69821166992188,-0.34291747212410,1.72223925590515,-134.46043395996094,9.82185268402100,-29.55870628356934
559,1210865246,-25.90850067138672,-76.40230560302734,-165.03945922851562,10.72174072265625,-0.45426028966904,1.68959939479828,-132.00627136230469,13.34936904907227,-27.66358947753906
560,1210873579,-25.89268302917480,-76.36721038818359,-166.15530395507812,10.65776348114014,-0.50459688901901,1.68712091445923,-129.49496459960938,17.55596351623535,-25.93657684326172
561,1210881912,-25.85350418090820,-76.30204772949219,-167.27561950683594,10.55338764190674,-0.48950180411339,1.73327112197876,-127.17961120605469,20.88022232055664,-24.61779022216797
562,1210890245,-25.82633209228516,-76.22273254394531,-168.37281799316406,10.43621921539307,-0.41906008124352,1.79719126224518,-125.78428649902344,22.02362632751465,-23.95295715332031
563,1210898578,-25.79626464843750,-76.15538024902344,-169.46174621582031,10.31733226776123,-0.34484976530075,1.86248409748077,-124.57402038574219,20.88168144226074,-23.79891586303711
564,1210906911,-25.80410575866699,-76.10224914550781,-170.50048828125000,10.27933979034424,-0.28595632314682,1.86443769931793,-123.10283660888672,18.58032989501953,-24.09106826782227
565,1210915244,-25.78124237060547,-76.07118225097656,-171.54783630371094,10.19459056854248,-0.24749378859997,1.78736519813538,-120.62702941894531,16.61465644836426,-24.43574714660645
566,1210923577,-25.75160789489746,-76.04117584228516,-172.56616210937500,10.08695888519287,-0.20032408833504,1.72276043891907,-116.18494415283203,15.87714385986328,-24.92096328735352
567,1210931910,-25.60896110534668,-76.01627349853516,-173.65975952148438,9.98332500457764,-0.16883784532547,1.76528477668762,-111.75637817382812,16.66672515869141,-25.40900611877441
568,1210940243,-25.44532966613770,-75.96920013427734,-174.73820495605469,9.91055488586426,-0.11267971992493,1.87461876869202,-107.07064056396484,18.43275642395020,-25.80429267883301
569,1210948576,-25.11732292175293,-75.92185974121094,-175.93867492675781,9.83366966247559,-0.10501675307751,2.06034779548645,-102.20177459716797,20.55694007873535,-25.98525428771973
570,1210956909,-24.81188392639160,-75.84085083007812,-177.07456970214844,9.75630664825439,-0.13371199369431,2.28538823127747,-96.67449951171875,22.69379425048828,-26.02176666259766
571,1210965242,-24.36256599426270,-75.76361846923828,-178.31707763671875,9.75128650665283,-0.04872302338481,2.58659172058105,-92.64997100830078,24.19325065612793,-25.32209396362305
572,1210973575,-24.04504013061523,-75.65185546875000,-179.41870117187500,9.69867134094238,-0.02637757733464,2.91150927543640,-91.13236999511719,25.47286605834961,-24.25826644897461
573,1210981908,-23.67722511291504,-75.53945159912109,179.43702697753906,9.63947582244873,-0.09004805982113,3.09811782836914,-90.72299194335938,26.45907211303711,-22.55595397949219
574,1210990241,-23.46105384826660,-75.40310668945312,178.45367431640625,9.56213378906250,-0.07938053458929,3.25488305091858,-89.42135620117188,26.69467544555664,-20.58550643920898
575,1210998574,-23.21688842773438,-75.26937866210938,177.45100402832031,9.44120025634766,-0.07475294917822,3.34631967544556,-88.96717071533203,26.97278404235840,-18.48286628723145
576,1211006907,-23.11763572692871,-75.10832977294922,176.59504699707031,9.32143878936768,-0.09719791263342,3.30938053131104,-88.52137756347656,27.96526145935059,-16.53621673583984
577,1211015240,-22.90665435791016,-74.94889068603516,175.64476013183594,9.22988510131836,-0.18119195103645,3.22720932960510,-87.18535614013672,29.29785156250000,-14.69630813598633
578,1211023573,-22.87094879150391,-74.75590515136719,174.88513183593750,9.13980960845947,-0.29644951224327,3.14676165580750,-84.82977294921875,30.48495101928711,-12.94810199737549
579,1211031906,-22.68597221374512,-74.56206512451172,174.01539611816406,9.02762603759766,-0.36209538578987,3.01319742202759,-80.95707702636719,32.16411590576172,-11.07227706909180
580,1211040239,-22.66451644897461,-74.32592773437500,173.33685302734375,8.88096904754639,-0.45447909832001,2.99282550811768,-76.98790740966797,34.45718002319336,-9.24845027923584
581,1211048572,-22.56764793395996,-74.08243560791016,172.62117004394531,8.78964996337891,-0.60145550966263,3.05970048904419,-72.79111480712891,35.83337020874023,-7.92015933990479
582,1211056905,-22.55239295959473,-73.82927703857422,172.02722167968750,8.76273155212402,-0.63681811094284,3.16832900047302,-67.78742980957031,35.49771118164062,-6.55315446853638
583,1211065238,-22.51494979858398,-73.58935546875000,171.45817565917969,8.88445949554443,-0.57184839248657,3.33362174034119,-62.63586807250977,33.75885391235352,-5.01285600662231
584,1211073571,-22.55495834350586,-73.35522460937500,170.99595642089844,9.02111721038818,-0.44816190004349,3.43854308128357,-59.09820556640625,31.89110374450684,-3.82177424430847
585,1211081904,-22.52559280395508,-73.14168548583984,170.49142456054688,9.16981124877930,-0.35935842990875,3.43111896514893,-56.61830520629883,30.02303886413574,-2.71041822433472
586,1211090237,-22.62054824829102,-72.92481231689453,170.12249755859375,9.31039428710938,-0.28498345613480,3.39164185523987,-54.85620117187500,28.89775848388672,-1.96589922904968
587,1211098570,-22.55142974853516,-72.71835327148438,169.60760498046875,9.47696876525879,-0.24049217998981,3.28658199310303,-53.45549774169922,29.33204650878906,-2.04555940628052
588,1211106903,-22.60737609863281,-72.49423980712891,169.23017883300781,9.72456073760986,-0.23801825940609,3.24148297309875,-51.04075622558594,29.94602203369141,-2.21836590766907
589,1211115236,-22.56155395507812,-72.27100372314453,168.77690124511719,10.07370853424072,-0.16518369317055,3.23105049133301,-48.23500061035156,30.71200752258301,-2.45241665840149
590,1211123569,-22.53098106384277,-72.03553009033203,168.34738159179688,10.43941783905029,-0.12633913755417,3.30719900131226,-46.50320816040039,32.06579208374023,-3.79319643974304
591,1211131902,-22.43377685546875,-71.79795074462891,167.86108398437500,10.82419204711914,-0.01793805137277,3.29738473892212,-45.08684158325195,33.11897659301758,-5.35830879211426
592,1211140235,-22.31805038452148,-71.56267547607422,167.35137939453125,11.14887809753418,0.08032225817442,3.19614458084106,-45.28995513916016,33.33222961425781,-7.06170988082886
593,1211148568,-22.18140220642090,-71.33609008789062,166.80068969726562,11.38230991363525,0.09494927525520,2.98974919319153,-47.36633300781250,33.02970504760742,-9.19370651245117
594,1211156901,-22.03989028930664,-71.11351776123047,166.20703125000000,11.52155017852783,0.05438177287579,2.62110495567322,-51.64248657226562,33.25999450683594,-11.03564643859863
595,1211165234,-21.89703941345215,-70.88203430175781,165.57165527343750,11.51326084136963,-0.08656758069992,2.32793903350830,-56.10406494140625,34.94245910644531,-12.53095626831055
596,1211173567,-21.76474761962891,-70.63586425781250,164.90995788574219,11.33656978607178,-0.31917566061020,2.10521197319031,-60.20826339721680,37.05715560913086,-13.33714962005615
597,1211181900,-21.67262840270996,-70.39785003662109,164.26614379882812,10.95306110382080,-0.58081400394440,1.96599757671356,-62.89275741577148,35.97137069702148,-13.40049648284912
598,1211190233,-21.63415908813477,-70.19245147705078,163.67066955566406,10.47690200805664,-0.75311827659607,1.88985002040863,-63.82675933837891,31.69323921203613,-13.17825126647949
599,1211198566,-21.65781021118164,-70.03159332275391,163.14102172851562,10.10618782043457,-0.84580045938492,1.78924024105072,-63.85682678222656,25.78487396240234,-12.60471725463867
600,1211206899,-21.75321960449219,-69.91237640380859,162.69921875000000,9.73953437805176,-0.88883799314499,1.72978675365448,-62.37411499023438,19.91560554504395,-11.61301422119141
601,1211215232,-21.88875198364258,-69.82788085937500,162.32472229003906,9.42008113861084,-0.90031254291534,1.76756656169891,-59.57069015502930,15.06484603881836,-10.61954498291016
602,1211223565,-21.97217941284180,-69.77217864990234,161.93104553222656,9.13364696502686,-0.88531434535980,1.77919459342957,-56.41318511962891,11.97106552124023,-9.94857311248779
603,1211231898,-22.06007385253906,-69.73042297363281,161.56283569335938,8.90478897094727,-0.83108735084534,1.78674304485321,-53.97651672363281,10.10531711578369,-9.85717868804932
604,1211240231,-22.19212913513184,-69.68849182128906,161.24969482421875,8.65579986572266,-0.75822031497955,1.74984741210938,-52.19722366333008,9.49889659881592,-10.22497177124023
605,1211248564,-22.28188705444336,-69.64171600341797,160.91255187988281,8.45050716400146,-0.70561569929123,1.72815930843353,-49.81769943237305,10.42713069915771,-10.92552089691162
606,1211256897,-22.30364799499512,-69.58219909667969,160.52517700195312,8.28270912170410,-0.68897610902786,1.76886618137360,-47.51438522338867,12.61943244934082,-11.68224334716797
607,1211265230,-22.27846717834473,-69.50701904296875,160.11145019531250,8.17581176757812,-0.74519860744476,1.78435719013214,-44.70835494995117,14.82115554809570,-12.37700271606445
608,1211273563,-22.20439529418945,-69.41545867919922,159.68028259277344,8.17669963836670,-0.76559472084045,1.84435689449310,-40.66971588134766,16.95761680603027,-12.68785476684570
609,1211281896,-22.07624435424805,-69.30548858642578,159.21269226074219,8.31377696990967,-0.71961396932602,1.92257857322693,-38.23899459838867,19.59091758728027,-13.39032649993896
610,1211290229,-21.90934562683105,-69.17013549804688,158.69865417480469,8.57606983184814,-0.67721790075302,1.96996927261353,-38.84204483032227,23.15522575378418,-14.00215244293213
611,1211298562,-21.69601058959961,-69.00302886962891,158.12820434570312,8.88461399078369,-0.75957757234573,1.90966856479645,-39.57684707641602,27.59100914001465,-14.92209243774414
612,1211306895,-21.43864822387695,-68.80091094970703,157.50816345214844,9.31755256652832,-0.84344410896301,1.94149613380432,-39.64138031005859,32.32080078125000,-16.03829002380371
613,1211315228,-21.13891410827637,-68.55983734130859,156.82289123535156,9.80426025390625,-0.93770730495453,2.07260942459106,-41.74523162841797,37.72769165039062,-17.39921188354492
614,1211323561,-20.79958534240723,-68.30877685546875,156.06730651855469,10.15404796600342,-0.96357297897339,2.29065608978271,-45.24803924560547,39.91092300415039,-18.91543769836426
615,1211331894,-20.52540206909180,-68.08712768554688,155.31027221679688,10.30898761749268,-0.94959992170334,2.59626054763794,-53.12915802001953,36.66206741333008,-20.64402770996094
616,1211340227,-20.42894554138184,-67.90256500244141,154.60508728027344,10.53385639190674,-0.81653368473053,2.65564775466919,-67.98638153076172,31.76894760131836,-22.01337432861328
617,1211348560,-20.49187850952148,-67.73431396484375,153.91493225097656,10.85516738891602,-0.87150257825851,2.18320751190186,-85.34900665283203,29.76726341247559,-22.28511810302734
618,1211356893,-20.64574623107910,-67.56968688964844,153.25642395019531,10.89124584197998,-1.06203889846802,1.66026711463928,-92.82258605957031,28.95915222167969,-20.79791450500488
619,1211365226,-20.84954071044922,-67.41022491455078,152.64930725097656,10.71628475189209,-1.10416877269745,1.58574616909027,-92.96540832519531,27.68928909301758,-19.09140014648438
620,1211373559,-21.10891914367676,-67.27170562744141,152.08731079101562,10.40666961669922,-1.01265799999237,1.84973502159119,-94.46530151367188,24.74681472778320,-18.35994148254395
621,1211381892,-21.43356132507324,-67.17411041259766,151.56878662109375,10.08524799346924,-1.03227400779724,2.05408167839050,-97.43392181396484,19.57745742797852,-18.25087165832520
622,1211390225,-21.79137992858887,-67.12001800537109,151.08621215820312,9.83601188659668,-1.13853764533997,2.04264831542969,-97.57989501953125,14.22910308837891,-18.11260032653809
623,1211398558,-22.12877464294434,-67.09899902343750,150.60412597656250,9.69092941284180,-1.31458950042725,2.05264663696289,-95.50687408447266,10.65634059906006,-18.31563568115234
624,1211406891,-22.49012184143066,-67.08634185791016,150.16627502441406,9.52393722534180,-1.44302296638489,2.18246603012085,-92.86174774169922,9.09677600860596,-18.40942955017090
625,1211415224,-22.82703018188477,-67.07880401611328,149.72621154785156,9.33879661560059,-1.60353040695190,2.34276270866394,-90.17592620849609,8.68156242370605,-18.68285751342773
626,1211423557,-23.05196762084961,-67.08283996582031,149.19776916503906,9.10410690307617,-1.82128131389618,2.54033899307251,-87.93092346191406,9.01006412506104,-19.12264823913574
627,1211431890,-23.25098228454590,-67.08828735351562,148.66342163085938,8.94600296020508,-2.01059174537659,2.69707489013672,-85.40419006347656,9.04869937896729,-19.57147026062012
628,1211440223,-23.49970245361328,-67.07956695556641,148.19409179687500,8.87222957611084,-2.20199346542358,2.81880521774292,-82.81167602539062,9.60638713836670,-19.80835914611816
629,1211448556,-23.67293548583984,-67.07143402099609,147.66368103027344,8.91195869445801,-2.29273271560669,2.91906785964966,-81.40984344482422,10.64376831054688,-19.96024894714355
630,1211456889,-23.87681388854980,-67.04203796386719,147.16931152343750,9.01694107055664,-2.42498040199280,2.89873433113098,-80.18592834472656,12.49811935424805,-19.83176612854004
631,1211465222,-23.97362518310547,-67.00566864013672,146.58670043945312,9.12870502471924,-2.43320727348328,2.85912418365479,-78.38084411621094,14.77052307128906,-19.75125503540039
632,1211473555,-24.11557769775391,-66.94091033935547,146.06321716308594,9.19391727447510,-2.36050224304199,2.77429127693176,-75.93383789062500,17.05871582031250,-19.38041687011719
633,1211481888,-24.15413856506348,-66.86714172363281,145.45100402832031,9.22206211090088,-2.26037955284119,2.78906607627869,-74.59403228759766,19.52067947387695,-19.31810760498047
634,1211490221,-24.24437522888184,-66.77392578125000,144.89347839355469,9.24495601654053,-2.20094561576843,2.68846535682678,-73.41175079345703,20.95577430725098,-19.54515266418457
635,1211498554,-24.22738838195801,-66.68428802490234,144.25401306152344,9.28969573974609,-2.08824396133423,2.60576748847961,-70.76539611816406,21.89322662353516,-20.11383438110352
636,1211506887,-24.24571990966797,-66.58668518066406,143.66667175292969,9.34199428558350,-1.90202677249908,2.59791779518127,-67.98058319091797,22.11383628845215,-20.80188179016113
637,1211515220,-24.16929626464844,-66.50128936767578,143.00892639160156,9.36128711700439,-1.76460695266724,2.68995928764343,-65.50346374511719,21.86965179443359,-21.47883987426758
638,1211523553,-24.14149284362793,-66.41510009765625,142.40780639648438,9.35298728942871,-1.61155021190643,2.83430242538452,-63.86840820312500,21.19209480285645,-22.18002891540527
639,1211531886,-24.04688453674316,-66.34902191162109,141.74803161621094,9.27648162841797,-1.49714767932892,2.97035741806030,-63.36148834228516,19.84534263610840,-23.01336097717285
640,1211540219,-24.01757621765137,-66.29235839843750,141.15214538574219,9.23897743225098,-1.43913495540619,3.04474925994873,-63.04442977905273,17.87141990661621,-23.59498786926270
641,1211548552,-23.92580413818359,-66.25846862792969,140.50459289550781,9.25399589538574,-1.43394231796265,3.12528657913208,-62.32998657226562,16.05349159240723,-24.14553642272949
642,1211556885,-23.90481948852539,-66.23118591308594,139.92990112304688,9.27735996246338,-1.38421905040741,3.21053504943848,-61.66990280151367,14.22580623626709,-24.20695686340332
643,1211565218,-23.83810424804688,-66.22216033935547,139.31753540039062,9.37245178222656,-1.38297557830811,3.32605433464050,-61.34887695312500,12.62196445465088,-24.15862274169922
644,1211573551,-23.83813476562500,-66.21183013916016,138.77023315429688,9.43219089508057,-1.42215323448181,3.39169764518738,-61.16683197021484,11.81032180786133,-23.86787414550781
645,1211581884,-23.80871391296387,-66.20174407958984,138.20343017578125,9.46325206756592,-1.47818076610565,3.44275665283203,-60.38622283935547,11.95114707946777,-23.20358657836914
646,1211590217,-23.81387901306152,-66.17617797851562,137.67900085449219,9.48894786834717,-1.57885611057281,3.47723269462585,-59.26336669921875,13.03453159332275,-22.15014457702637
647,1211598550,-23.79586982727051,-66.14127349853516,137.14411926269531,9.45623111724854,-1.66200292110443,3.50605010986328,-58.02310562133789,14.12685012817383,-21.16112136840820
648,1211606883,-23.81166076660156,-66.09605407714844,136.65028381347656,9.41953468322754,-1.73798978328705,3.49982619285583,-57.14763641357422,14.61682701110840,-19.90629959106445
649,1211615216,-23.82773590087891,-66.04747009277344,136.16108703613281,9.39177417755127,-1.74826502799988,3.47513318061829,-57.04633712768555,14.76574516296387,-18.58590316772461
650,1211623549,-23.89223480224609,-65.98990631103516,135.71746826171875,9.39725017547607,-1.77677214145660,3.40101122856140,-57.44492340087891,15.04407024383545,-17.13697814941406
651,1211631882,-23.95699119567871,-65.92347717285156,135.27140808105469,9.35330772399902,-1.77963101863861,3.37925076484680,-58.17601394653320,15.90996456146240,-15.72593879699707
652,1211640215,-24.06749343872070,-65.84632873535156,134.86538696289062,9.20867061614990,-1.75071167945862,3.34629058837891,-58.79460525512695,16.52872848510742,-14.56607151031494
653,1211648548,-24.17131996154785,-65.76813507080078,134.44755554199219,9.10443878173828,-1.73210358619690,3.29039835929871,-59.92945480346680,16.63513755798340,-13.42646789550781
654,1211656881,-24.34417152404785,-65.69205474853516,134.09248352050781,8.94566345214844,-1.77507448196411,3.12293863296509,-60.64870452880859,15.49375820159912,-12.37574005126953
655,1211665214,-24.48638534545898,-65.63304138183594,133.72058105468750,8.79193115234375,-1.80682694911957,2.99412488937378,-59.69428253173828,13.59678745269775,-11.77367496490479
656,1211673547,-24.69260597229004,-65.58846282958984,133.41967773437500,8.69609260559082,-1.81470298767090,2.95041465759277,-58.69393539428711,11.05067157745361,-11.49839782714844
657,1211681880,-24.89336013793945,-65.56728363037109,133.12886047363281,8.68798828125000,-1.85502350330353,2.96700429916382,-57.27257537841797,8.16280651092529,-11.35705280303955
658,1211690213,-25.12661170959473,-65.56454467773438,132.88345336914062,8.71673107147217,-1.85991096496582,3.02353072166443,-55.86075592041016,5.42796611785889,-11.05979728698730
659,1211698546,-25.36952972412109,-65.57550811767578,132.65425109863281,8.79370594024658,-1.87307655811310,3.02576875686646,-55.25590896606445,3.63639950752258,-11.00293445587158
660,1211706879,-25.60038185119629,-65.59044647216797,132.42562866210938,8.92430305480957,-1.93816888332367,2.99050402641296,-54.05263519287109,3.07367801666260,-10.41743946075439
661,1211715212,-25.81173515319824,-65.60366058349609,132.19294738769531,8.98304080963135,-1.98283195495605,2.98739027976990,-52.35291671752930,3.28778743743896,-10.02966308593750
662,1211723545,-26.04288673400879,-65.60591125488281,131.99337768554688,8.99768352508545,-2.02880239486694,3.02354812622070,-50.60541915893555,4.06021165847778,-9.18262100219727
663,1211731878,-26.26949501037598,-65.59680938720703,131.80099487304688,9.02784442901611,-2.08803486824036,3.06561470031738,-49.27884674072266,5.15944814682007,-8.23773479461670
664,1211740211,-26.44435501098633,-65.57665252685547,131.57403564453125,9.05727481842041,-2.16004395484924,3.15134334564209,-47.55346298217773,6.74697017669678,-7.46177530288696
665,1211748544,-26.59882545471191,-65.53916168212891,131.33720397949219,9.06776332855225,-2.22637605667114,3.27898812294006,-46.24906158447266,8.81756401062012,-6.78574943542480
666,1211756877,-26.78002548217773,-65.48165130615234,131.13299560546875,9.04240417480469,-2.30715537071228,3.39778876304626,-45.09858703613281,10.71259784698486,-6.15908241271973
667,1211765210,-26.95028114318848,-65.41121673583984,130.92950439453125,8.99028873443604,-2.32344436645508,3.56022572517395,-43.69760513305664,12.10547542572021,-5.39759492874146
668,1211773543,-27.07403373718262,-65.33450317382812,130.69221496582031,8.88557052612305,-2.29401969909668,3.71442651748657,-42.46658325195312,13.16823768615723,-4.95293092727661
