PacketCounter,SampleTimeFine,Euler_X,Euler_Y,Euler_Z,Acc_X,Acc_Y,Acc_Z,Gyr_X,Gyr_Y,Gyr_Z
0, 4173867188, 2.3644704818725586, 83.25651550292969, 45.878482818603516, 0.0, 0.0, 0.0, 0.0, 0.0, 0.0
1, 4173883855, 2.065467357635498, 83.16961669921875, 45.53404235839844, -9.746644020080566, 0.022447558119893074, 1.17215096950531, 1.9233407974243164, -2.122281074523926, -0.15001358091831207
2, 4173900522, 1.7826216220855713, 83.10803985595703, 45.258636474609375, -9.726924896240234, 0.03844980150461197, 1.1687768697738647, 0.5105315446853638, -2.181126356124878, -0.5596887469291687
3, 4173917189, 1.6344622373580933, 83.07669067382812, 45.129364013671875, -9.734591484069824, 0.06655564904212952, 1.1404706239700317, -0.6411243081092834, -1.510701060295105, -0.7206901907920837
4, 4173933856, 1.717026948928833, 83.0532455444336, 45.2196159362793, -9.697929382324219, 0.01088645588606596, 1.1210187673568726, 0.038732804358005524, -2.27864670753479, -0.3062894940376282
5, 4173950523, 1.693515419960022, 83.06929779052734, 45.201255798339844, -9.70958137512207, 0.05963980779051781, 1.176872730255127, 0.661313533782959, -0.6260769367218018, -0.6446077227592468
6, 4173967190, 1.7731258869171143, 83.09410858154297, 45.24594497680664, -9.687828063964844, 0.07516752928495407, 1.1895257234573364, 2.604113817214966, 0.437919557094574, -0.5457042455673218
7, 4173983857, 1.8759385347366333, 83.11564636230469, 45.294857025146484, -9.699418067932129, 0.02426409162580967, 1.196256160736084, 3.494295597076416, 0.6958265900611877, -0.7826599478721619
8, 4174000524, 1.9871571063995361, 83.14545440673828, 45.36659622192383, -9.745342254638672, 0.016366686671972275, 1.328654408454895, 2.8602404594421387, 1.5006543397903442, -0.37731343507766724
9, 4174017191, 2.0201575756073, 83.1517562866211, 45.37106704711914, -9.73598575592041, 0.025506697595119476, 1.3289878368377686, 2.080423593521118, 1.0537513494491577, -0.5756070613861084
10, 4174033858, 2.003450632095337, 83.1486587524414, 45.331024169921875, -9.724564552307129, 0.08330889791250229, 1.2148942947387695, 1.3128750324249268, 0.992870032787323, -0.7424353957176208
11, 4174050525, 2.036520481109619, 83.14608764648438, 45.353965759277344, -9.67602825164795, 0.13876961171627045, 0.9346295595169067, 1.1535383462905884, 0.8111477494239807, -0.5661047101020813
12, 4174067192, 2.1155338287353516, 83.14207458496094, 45.4264030456543, -9.749990463256836, -0.03211546689271927, 1.1064332723617554, 1.1112134456634521, -0.4083816707134247, -0.5472793579101562
13, 4174083859, 2.1219470500946045, 83.13904571533203, 45.425636291503906, -9.706024169921875, 0.055590659379959106, 1.0539758205413818, 0.6582527756690979, -0.5885926485061646, -0.6798378229141235
14, 4174100526, 2.1104161739349365, 83.15106201171875, 45.421974182128906, -9.838704109191895, 0.01430125255137682, 1.282241940498352, -0.36152321100234985, 0.046506259590387344, -0.7284635305404663
15, 4174117193, 1.9572199583053589, 83.14625549316406, 45.31248474121094, -9.630252838134766, 0.13462765514850616, 0.9615130424499512, -1.5007377862930298, -0.6690806150436401, -1.4785443544387817
16, 4174133860, 1.7497897148132324, 83.15986633300781, 45.1311149597168, -9.700189590454102, 0.021485112607479095, 0.9727287888526917, -2.4177749156951904, 0.043407123535871506, -1.9806174039840698
17, 4174150527, 1.4534122943878174, 83.1753921508789, 44.91178512573242, -9.767906188964844, -0.017133967950940132, 1.298710584640503, -3.103299379348755, -0.10693304240703583, -2.466285467147827
18, 4174167194, 1.1318005323410034, 83.1826400756836, 44.644630432128906, -9.693631172180176, 0.0690484270453453, 1.2346727848052979, -2.7683358192443848, -0.2608397305011749, -2.5645740032196045
19, 4174183861, 0.8813971281051636, 83.18905639648438, 44.4313850402832, -9.689225196838379, 0.028495749458670616, 1.1095824241638184, -2.034634590148926, -0.1114920899271965, -2.1911280155181885
20, 4174200528, 0.7158856987953186, 83.20742797851562, 44.30297088623047, -9.669346809387207, 0.08714235574007034, 1.1054177284240723, -2.239074945449829, 0.5869341492652893, -1.559557318687439
21, 4174217195, 0.5588913559913635, 83.22897338867188, 44.159912109375, -9.67797565460205, 0.0976671352982521, 1.152763843536377, -1.01806640625, 0.7488193511962891, -1.7106338739395142
22, 4174233862, 0.3645951747894287, 83.23207092285156, 43.977142333984375, -9.742429733276367, 0.010044856928288937, 1.1483227014541626, -0.7098431587219238, -0.30881232023239136, -2.063717842102051
23, 4174250529, 0.13299207389354706, 83.2170181274414, 43.77699661254883, -9.793434143066406, 0.012739740312099457, 1.1707563400268555, -2.0237748622894287, -1.3736090660095215, -2.1365599632263184
24, 4174267196, -0.1247810497879982, 83.19583129882812, 43.56538009643555, -9.768414497375488, 0.05378299579024315, 1.1278252601623535, -3.3398447036743164, -1.707790732383728, -2.1572039127349854
25, 4174283863, -0.3763926923274994, 83.17881774902344, 43.3775634765625, -9.772168159484863, -0.01617150567471981, 1.2793508768081665, -4.438155651092529, -1.4546093940734863, -2.0105717182159424
26, 4174300530, -0.6057310104370117, 83.16695404052734, 43.20185470581055, -9.677677154541016, 0.10087550431489944, 1.1594395637512207, -3.1797401905059814, -1.0310777425765991, -1.971524953842163
27, 4174317197, -0.7989119291305542, 83.1690444946289, 43.043312072753906, -9.695904731750488, 0.06695105880498886, 1.215761423110962, -2.6739017963409424, -0.18742091953754425, -1.8236240148544312
28, 4174333864, -0.9703963398933411, 83.1863784790039, 42.90670394897461, -9.67559814453125, 0.07739091664552689, 1.2032718658447266, -2.4056599140167236, 0.7596534490585327, -1.7100958824157715
29, 4174350531, -0.9725361466407776, 83.18468475341797, 42.91661834716797, -9.775965690612793, 0.11120108515024185, 1.1602264642715454, -0.27716782689094543, -0.36060118675231934, -0.7962731719017029
30, 4174367198, -1.108054280281067, 83.22595977783203, 42.81568908691406, -9.686689376831055, -0.049194563180208206, 1.205521821975708, -1.517181158065796, 2.2165040969848633, -1.5997182130813599
31, 4174383865, -1.1558949947357178, 83.28279876708984, 42.77522659301758, -9.690728187561035, 0.11862219870090485, 1.1730296611785889, -0.04821590334177017, 3.185713768005371, -1.0735946893692017
32, 4174400532, -1.1582812070846558, 83.34439086914062, 42.75341796875, -9.710692405700684, 0.08790943026542664, 1.1072272062301636, 1.2076834440231323, 3.46211314201355, -0.933890163898468
33, 4174417199, -1.0237274169921875, 83.3708724975586, 42.84283447265625, -9.744820594787598, 0.10176631808280945, 1.108300805091858, 3.3631973266601562, 1.3242214918136597, -0.2902047038078308
34, 4174433866, -1.0274920463562012, 83.43058013916016, 42.8023796081543, -9.673975944519043, -0.004726811777800322, 1.1866393089294434, 1.797851800918579, 3.3234596252441406, -1.0620306730270386
35, 4174450533, -1.014288067817688, 83.48004150390625, 42.784488677978516, -9.738611221313477, 0.04861881211400032, 1.1486300230026245, 1.0345673561096191, 2.727630853652954, -0.8392001390457153
36, 4174467200, -0.9643816351890564, 83.51892852783203, 42.80443572998047, -9.743962287902832, -0.0025027552619576454, 1.0860096216201782, 1.2817682027816772, 2.104102611541748, -0.6266787052154541
37, 4174483867, -0.9803432822227478, 83.5426025390625, 42.76062774658203, -9.748788833618164, -0.010061508044600487, 1.082371711730957, 1.4026987552642822, 1.18186616897583, -1.0838398933410645
38, 4174500534, -0.9947307109832764, 83.54436492919922, 42.70685958862305, -9.766231536865234, -0.007226142566651106, 1.064756989479065, 1.6534470319747925, -0.1518705040216446, -1.101871132850647
39, 4174517201, -1.0235224962234497, 83.5413589477539, 42.63052749633789, -9.741215705871582, -0.012602392584085464, 1.0713536739349365, 0.6882068514823914, -0.44642940163612366, -1.0768731832504272
40, 4174533868, -1.0702556371688843, 83.53652954101562, 42.57908630371094, -9.717435836791992, -0.0029298472218215466, 1.0647532939910889, -0.3604731261730194, -0.5626981854438782, -1.0635545253753662
41, 4174550535, -1.1255723237991333, 83.53671264648438, 42.53011703491211, -9.74244499206543, -0.00841018371284008, 1.0723432302474976, -0.5892841815948486, -0.2687668800354004, -1.0762584209442139
42, 4174567202, -1.1682047843933105, 83.53820037841797, 42.49302673339844, -9.754624366760254, -0.026438748463988304, 1.1485947370529175, -0.6371287703514099, -0.2078854739665985, -0.9711694717407227
43, 4174583869, -1.2259950637817383, 83.53367614746094, 42.437374114990234, -9.76549243927002, -0.05143805593252182, 1.2771799564361572, -0.43810519576072693, -0.5484959483146667, -1.0868877172470093
44, 4174600536, -1.2747458219528198, 83.5285873413086, 42.38945770263672, -9.693635940551758, 0.058448877185583115, 1.0595059394836426, 0.00766459945589304, -0.5408633351325989, -1.0564724206924438
45, 4174617203, -1.329455852508545, 83.52703857421875, 42.324954986572266, -9.690752029418945, 0.08012354373931885, 0.9405187964439392, -0.1698378026485443, -0.33766499161720276, -1.081790804862976
46, 4174633870, -1.337494134902954, 83.53182983398438, 42.299713134765625, -9.802291870117188, -0.06900528073310852, 1.097051739692688, 0.6451902389526367, 3.26561916153878E-4, -0.861483097076416
47, 4174650537, -1.3203566074371338, 83.52952575683594, 42.29035186767578, -9.643231391906738, 0.09598489850759506, 0.9806830883026123, 1.5624196529388428, -0.43273940682411194, -0.7801501154899597
48, 4174667204, -1.2963484525680542, 83.53999328613281, 42.27128601074219, -9.77834415435791, 0.018197007477283478, 1.1152639389038086, 1.0292655229568481, 0.3055146634578705, -0.671821117401123
49, 4174683871, -1.3421639204025269, 83.54928588867188, 42.22866439819336, -9.737443923950195, 0.07953298836946487, 1.124429702758789, -0.4117881655693054, 0.24652864038944244, -0.9828744530677795
50, 4174700538, -1.4603642225265503, 83.55758666992188, 42.098411560058594, -9.638106346130371, 0.10826743394136429, 0.8871031403541565, -1.0493651628494263, 0.21403895318508148, -1.4111062288284302
51, 4174717205, -1.647571086883545, 83.56053924560547, 41.9151611328125, -9.788354873657227, -0.07568342238664627, 1.1791355609893799, -1.3244584798812866, -0.13855190575122833, -1.8691508769989014
52, 4174733872, -1.8543695211410522, 83.5577392578125, 41.7239990234375, -9.736260414123535, -0.0166307520121336, 1.2204142808914185, -1.1994812488555908, -0.46302637457847595, -2.0065500736236572
53, 4174750539, -2.006526231765747, 83.55813598632812, 41.58118438720703, -9.72204875946045, -0.022125354036688805, 1.1185181140899658, -0.43569767475128174, -0.2384798675775528, -1.7087385654449463
54, 4174767206, -2.129652738571167, 83.55859375, 41.4458122253418, -9.692206382751465, -0.048044417053461075, 1.0536351203918457, 0.24622130393981934, -0.24353834986686707, -1.5824037790298462
55, 4174783873, -2.219271183013916, 83.55245208740234, 41.33662033081055, -9.739967346191406, -0.03804000839591026, 1.066672921180725, 0.7405336499214172, -0.6440313458442688, -1.4158445596694946
56, 4174800540, -2.3244807720184326, 83.53067016601562, 41.21846389770508, -9.748149871826172, -0.04802640900015831, 1.066645622253418, 0.6385439038276672, -1.5753602981567383, -1.5413596630096436
57, 4174817207, -2.4511160850524902, 83.50315856933594, 41.085243225097656, -9.739825248718262, -0.03745676204562187, 1.0851794481277466, 0.34598270058631897, -1.9252938032150269, -1.666131615638733
58, 4174833874, -2.6012356281280518, 83.46931457519531, 40.920284271240234, -9.726251602172852, -0.005914720706641674, 1.0000042915344238, 0.27256396412849426, -2.2928872108459473, -1.8385565280914307
59, 4174850541, -2.753098249435425, 83.42877960205078, 40.77495193481445, -9.784200668334961, -0.07794579118490219, 1.2226110696792603, -0.7092667818069458, -2.7099642753601074, -1.7673016786575317
60, 4174867208, -2.899045944213867, 83.38028717041016, 40.628116607666016, -9.694090843200684, 0.011008902452886105, 1.098122000694275, -0.7445868253707886, -3.1782801151275635, -1.7501798868179321
61, 4174883875, -2.984842538833618, 83.33894348144531, 40.532161712646484, -9.746956825256348, -0.016040388494729996, 1.1876269578933716, -0.20364657044410706, -2.7587056159973145, -1.3867740631103516
62, 4174900542, -3.0665249824523926, 83.30104064941406, 40.4412956237793, -9.737516403198242, -0.018619555979967117, 1.2202452421188354, -0.19263312220573425, -2.543917179107666, -1.3561795949935913
63, 4174917209, -3.1426334381103516, 83.26809692382812, 40.35438537597656, -9.72629165649414, -0.026914164423942566, 1.188854694366455, 0.11311209946870804, -2.240048408508301, -1.3427586555480957
64, 4174933876, -3.2270138263702393, 83.23780822753906, 40.25886154174805, -9.778037071228027, -0.08124765008687973, 1.2049741744995117, -0.004610286094248295, -2.0653443336486816, -1.383649230003357
65, 4174950543, -3.2873737812042236, 83.21849060058594, 40.201473236083984, -9.729966163635254, -0.03515564277768135, 1.1953473091125488, -0.3833964467048645, -1.4071744680404663, -1.128239393234253
66, 4174967210, -3.314333200454712, 83.20462799072266, 40.1666145324707, -9.702534675598145, -0.02463020570576191, 1.1598339080810547, -0.1541244238615036, -1.0946356058120728, -0.8994540572166443
67, 4174983877, -3.316969871520996, 83.19507598876953, 40.15707778930664, -9.715011596679688, -0.025323163717985153, 1.140196681022644, 0.22967548668384552, -0.8431829214096069, -0.7565608024597168
68, 4175000544, -3.2820041179656982, 83.19366455078125, 40.173622131347656, -9.728082656860352, -0.049610063433647156, 1.1539084911346436, 0.6172084212303162, -0.37295931577682495, -0.5073747634887695
69, 4175017211, -3.2558462619781494, 83.19795989990234, 40.187889099121094, -9.726357460021973, -0.07260415703058243, 1.1931228637695312, 0.5263601541519165, -0.014676075428724289, -0.537187933921814
70, 4175033878, -3.2396395206451416, 83.1989974975586, 40.188087463378906, -9.738146781921387, -0.06355980038642883, 1.2006796598434448, 0.35314151644706726, -0.22108884155750275, -0.5950341820716858
71, 4175050545, -3.2092156410217285, 83.19819641113281, 40.208343505859375, -9.711706161499023, -0.04193799942731857, 1.1603686809539795, 0.36430859565734863, -0.32033801078796387, -0.4963356554508209
72, 4175067212, -3.1509525775909424, 83.19767761230469, 40.229881286621094, -9.72089672088623, -0.04478484392166138, 1.1597497463226318, 0.6886422634124756, -0.3240646719932556, -0.33469393849372864
73, 4175083879, -3.0920169353485107, 83.19375610351562, 40.258636474609375, -9.709229469299316, -0.04624351114034653, 1.1322959661483765, 0.8767802715301514, -0.5116008520126343, -0.36092135310173035
74, 4175100546, -3.029432773590088, 83.190185546875, 40.29158020019531, -9.709854125976562, -0.06107962876558304, 1.1464494466781616, 0.9529013633728027, -0.5036993622779846, -0.34094345569610596
75, 4175117213, -2.974440336227417, 83.1889419555664, 40.33184814453125, -9.720818519592285, -0.06867033243179321, 1.1439428329467773, 0.6365331411361694, -0.35836008191108704, -0.3473209738731384
76, 4175133880, -2.9340484142303467, 83.18853759765625, 40.352787017822266, -9.721855163574219, -0.04060067981481552, 1.128393530845642, 0.6273382902145386, -0.30810797214508057, -0.4441113770008087
77, 4175150547, -2.8987269401550293, 83.19340515136719, 40.36964797973633, -9.69483757019043, -0.03592968359589577, 1.1804311275482178, 0.860196053981781, 0.004872816614806652, -0.49146926403045654
78, 4175167214, -2.829002618789673, 83.20269012451172, 40.41167449951172, -9.746024131774902, -0.09041053801774979, 1.3255345821380615, 1.3561347723007202, 0.26345860958099365, -0.2919975817203522
79, 4175183881, -2.7254912853240967, 83.2121353149414, 40.48744201660156, -9.67191219329834, 0.03535393625497818, 1.1770905256271362, 1.581539273262024, 0.27886468172073364, -0.07162591814994812
80, 4175200548, -2.604431629180908, 83.23062133789062, 40.573974609375, -9.722421646118164, -0.05323763191699982, 1.156042456626892, 1.556771993637085, 0.8207654356956482, 0.07181160897016525
81, 4175217215, -2.514962911605835, 83.25041198730469, 40.634727478027344, -9.731042861938477, -0.07957740128040314, 1.027258038520813, 1.4521185159683228, 0.9174533486366272, -0.1373865306377411
82, 4175233882, -2.4227044582366943, 83.26233673095703, 40.688514709472656, -9.646354675292969, -0.007517838850617409, 0.9893114566802979, 2.123260736465454, 0.4210023880004883, -0.2155436873435974
83, 4175250549, -2.318044424057007, 83.28321075439453, 40.741973876953125, -9.699838638305664, -0.02560252882540226, 1.0627566576004028, 2.4164364337921143, 0.9501989483833313, -0.14364881813526154
84, 4175267216, -2.220029592514038, 83.31420135498047, 40.797142028808594, -9.81480884552002, -0.036066751927137375, 1.2597697973251343, 1.6523202657699585, 1.55246901512146, -0.08038546144962311
85, 4175283883, -2.194912910461426, 83.34394836425781, 40.79734802246094, -9.62633228302002, 0.012461247853934765, 0.9577397108078003, 0.6156461238861084, 1.491024136543274, -0.478598952293396
86, 4175300550, -2.2912726402282715, 83.37548828125, 40.68341827392578, -9.757509231567383, -0.15074649453163147, 1.0934301614761353, -0.5763753652572632, 1.6172689199447632, -1.184804916381836
87, 4175317217, -2.418402671813965, 83.4007339477539, 40.5595817565918, -9.740874290466309, -0.05568666383624077, 1.2596408128738403, -0.695756196975708, 1.2487279176712036, -1.381049633026123
88, 4175333884, -2.5025994777679443, 83.41947937011719, 40.4592170715332, -9.70653247833252, -0.0027843499556183815, 1.1851153373718262, 0.6804845333099365, 0.866023063659668, -1.2527939081192017
89, 4175350551, -2.5551259517669678, 83.4388198852539, 40.372154235839844, -9.718668937683105, -0.1020238921046257, 1.1169164180755615, 1.26921808719635, 0.896233081817627, -1.0988359451293945
90, 4175367218, -2.6213293075561523, 83.45680236816406, 40.2738151550293, -9.736735343933105, -0.12696151435375214, 1.0979732275009155, 0.8346347212791443, 0.8214697241783142, -1.1378698348999023
91, 4175383885, -2.6809327602386475, 83.46688842773438, 40.19831466674805, -9.745148658752441, -0.07933524996042252, 1.0928843021392822, 0.45780783891677856, 0.3424866497516632, -1.0605067014694214
92, 4175400552, -2.742661952972412, 83.46841430664062, 40.13054656982422, -9.747149467468262, -0.0464608371257782, 1.0904842615127563, 0.020086759701371193, -0.17405109107494354, -1.0450876951217651
93, 4175417219, -2.790592670440674, 83.47000885009766, 40.07895278930664, -9.716416358947754, -0.004675024189054966, 1.0115511417388916, -0.310912549495697, -0.17699654400348663, -0.910979688167572
94, 4175433886, -2.8208982944488525, 83.47022247314453, 40.045501708984375, -9.77180290222168, -0.14204737544059753, 1.1874761581420898, -0.28583770990371704, -0.27372291684150696, -0.8011524081230164
95, 4175450553, -2.864314556121826, 83.45516204833984, 40.00065231323242, -9.689618110656738, -0.02363264374434948, 1.0998659133911133, -0.28596580028533936, -1.1785043478012085, -0.927794337272644
96, 4175467220, -2.851109743118286, 83.44243621826172, 40.00923538208008, -9.75617504119873, -0.028571953997015953, 1.1591994762420654, 0.20369137823581696, -1.0519647598266602, -0.5903598666191101
97, 4175483887, -2.8312594890594482, 83.42499542236328, 40.02800369262695, -9.746245384216309, -0.03048712946474552, 1.1989306211471558, -0.032246388494968414, -1.339249610900879, -0.5316684246063232
98, 4175500554, -2.8168258666992188, 83.40581512451172, 40.02833938598633, -9.724020957946777, -0.03093167580664158, 1.160996437072754, 0.028218790888786316, -1.43433678150177, -0.5828297734260559
99, 4175517221, -2.7780303955078125, 83.39060974121094, 40.056495666503906, -9.704720497131348, -0.0509394034743309, 1.1445560455322266, 0.45604053139686584, -1.197150468826294, -0.4519617259502411
100, 4175533888, -2.693675994873047, 83.3855972290039, 40.10169219970703, -9.698586463928223, -0.04347426816821098, 1.1264431476593018, 0.8803404569625854, -0.599414050579071, -0.15335603058338165
101, 4175550555, -2.598998546600342, 83.39336395263672, 40.175201416015625, -9.701435089111328, -0.03281368687748909, 1.0941976308822632, 0.958267092704773, 0.1636587381362915, -0.054401371628046036
102, 4175567222, -2.507922649383545, 83.4089126586914, 40.24394607543945, -9.686786651611328, -0.06845923513174057, 1.106418251991272, 0.9185546040534973, 0.6343176960945129, -0.05757734924554825
103, 4175583889, -2.4300997257232666, 83.42994689941406, 40.30202865600586, -9.705718040466309, -0.08290969580411911, 1.1095994710922241, 0.5671612024307251, 0.9644783139228821, -0.09361442178487778
104, 4175600556, -2.340808391571045, 83.45594024658203, 40.37900924682617, -9.687965393066406, 0.008640984073281288, 1.1254594326019287, 0.49503588676452637, 1.252377986907959, 0.005359457340091467
105, 4175617223, -2.244774580001831, 83.48094177246094, 40.458980560302734, -9.731733322143555, -0.04002857580780983, 1.145780324935913, 0.6950838565826416, 1.199077844619751, 0.018281064927577972
106, 4175633890, -2.1718804836273193, 83.49805450439453, 40.51426315307617, -9.780731201171875, -0.07374539971351624, 1.1602739095687866, 0.4520065486431122, 0.728995144367218, -0.13431300222873688
107, 4175650557, -2.11953067779541, 83.50958251953125, 40.550689697265625, -9.766386032104492, -0.052652500569820404, 1.1404989957809448, 0.33586573600769043, 0.4066464304924011, -0.27227577567100525
108, 4175667224, -2.076038360595703, 83.51763153076172, 40.57679748535156, -9.743759155273438, -0.06356708705425262, 1.128289818763733, 0.39820700883865356, 0.21014578640460968, -0.34734657406806946
109, 4175683891, -2.0188233852386475, 83.52558898925781, 40.618160247802734, -9.718586921691895, -0.01816355623304844, 1.0981101989746094, 0.46053555607795715, 0.19171744585037231, -0.2597768008708954
110, 4175700558, -1.9461307525634766, 83.53880310058594, 40.66494369506836, -9.691447257995605, 0.0030843208078294992, 1.0909273624420166, 0.858556866645813, 0.5076628923416138, -0.19034075736999512
111, 4175717225, -1.874199628829956, 83.5566177368164, 40.719764709472656, -9.73229694366455, -0.023581625893712044, 1.0935367345809937, 0.7606651186943054, 0.7815266251564026, -0.17974990606307983
112, 4175733892, -1.8104500770568848, 83.57303619384766, 40.769630432128906, -9.737866401672363, -0.015395542606711388, 1.0801974534988403, 0.6140196323394775, 0.7031646370887756, -0.22495633363723755
113, 4175750559, -1.7374411821365356, 83.58941650390625, 40.8293342590332, -9.737284660339355, -0.05144203454256058, 1.0861769914627075, 0.5217755436897278, 0.7059437036514282, -0.1541372388601303
114, 4175767226, -1.6553268432617188, 83.6050033569336, 40.88833999633789, -9.761605262756348, -0.03132157027721405, 1.1849647760391235, 0.7926297783851624, 0.6382748484611511, -0.12501558661460876
115, 4175783893, -1.5446821451187134, 83.6189956665039, 40.953269958496094, -9.747095108032227, -0.056414004415273666, 1.2900805473327637, 1.296495795249939, 0.5622820258140564, 0.00429653050377965
116, 4175800560, -1.4011578559875488, 83.63151550292969, 41.0653190612793, -9.687376976013184, 0.045430246740579605, 1.0579197406768799, 1.5223997831344604, 0.4753012955188751, 0.1976211965084076
117, 4175817227, -1.2902414798736572, 83.6427001953125, 41.14883804321289, -9.750720977783203, -0.013571318238973618, 1.0463148355484009, 1.0897115468978882, 0.3974258601665497, 0.01802493818104267
118, 4175833894, -1.1892651319503784, 83.65032196044922, 41.20716094970703, -9.752459526062012, -0.06241719052195549, 1.0023161172866821, 1.7663222551345825, 0.1945604830980301, -0.1317005157470703
119, 4175850561, -1.1114723682403564, 83.65393829345703, 41.23810958862305, -9.678763389587402, 0.013897419907152653, 0.96174556016922, 2.0692949295043945, -0.05547711253166199, -0.3214778006076813
120, 4175867228, -1.0555225610733032, 83.66645812988281, 41.26161575317383, -9.786075592041016, -0.03121159039437771, 1.1311217546463013, 1.3335827589035034, 0.4683730900287628, -0.378747820854187
121, 4175883895, -1.036571741104126, 83.68727111816406, 41.266807556152344, -9.702821731567383, 0.08919941633939743, 1.0540707111358643, 0.5369126200675964, 0.9809983968734741, -0.5272502899169922
122, 4175900562, -1.1157913208007812, 83.70574188232422, 41.17641830444336, -9.654952049255371, 0.023505639284849167, 0.910830020904541, -0.2053242027759552, 0.8463525176048279, -1.104995846748352
123, 4175917229, -1.275075912475586, 83.71316528320312, 41.018272399902344, -9.783284187316895, -0.10504739731550217, 1.157340168952942, -1.1261005401611328, 0.18085764348506927, -1.5466097593307495
124, 4175933896, -1.4401607513427734, 83.71762084960938, 40.86560821533203, -9.741315841674805, 0.0011351860594004393, 1.199648141860962, -1.0811632871627808, 0.009828872047364712, -1.5846574306488037
125, 4175950563, -1.537812352180481, 83.7240219116211, 40.758934020996094, -9.732560157775879, -0.04992115870118141, 1.1436086893081665, -0.20928137004375458, 0.13625316321849823, -1.2325727939605713
126, 4175967230, -1.5889265537261963, 83.73393249511719, 40.69956588745117, -9.727448463439941, -0.0498417466878891, 1.0786513090133667, 0.07667802274227142, 0.34120601415634155, -0.9475290775299072
127, 4175983897, -1.618530035018921, 83.74417114257812, 40.643028259277344, -9.73001480102539, -0.08541056513786316, 1.0409648418426514, 0.5839247703552246, 0.36681869626045227, -0.8582688570022583
128, 4176000564, -1.699292540550232, 83.73540496826172, 40.55524444580078, -9.749223709106445, -0.08313999325037003, 1.0320229530334473, -0.28349414467811584, -0.7789334654808044, -1.1282137632369995
129, 4176017231, -1.785220980644226, 83.71884155273438, 40.46684646606445, -9.750035285949707, -0.03180137649178505, 1.0305753946304321, -0.7808544039726257, -1.2452126741409302, -1.120324969291687
130, 4176033898, -1.885176658630371, 83.7012939453125, 40.36525344848633, -9.7152738571167, -0.017771419137716293, 0.9879099726676941, -0.6223629117012024, -1.3057481050491333, -1.235044240951538
131, 4176050565, -1.9770413637161255, 83.67752075195312, 40.27857971191406, -9.795913696289062, -0.09805957973003387, 1.2026268243789673, -1.0361617803573608, -1.6823830604553223, -1.1523410081863403
132, 4176067232, -2.0293474197387695, 83.64822387695312, 40.22146224975586, -9.70358943939209, 0.0780210867524147, 1.0408505201339722, -0.36368754506111145, -2.0183959007263184, -0.9750626683235168
133, 4176083899, -2.0554707050323486, 83.61954498291016, 40.19086837768555, -9.790553092956543, -1.9777720444835722E-4, 1.1696690320968628, -0.24549773335456848, -1.9805917739868164, -0.821168839931488
134, 4176100566, -2.093500852584839, 83.5914306640625, 40.1390495300293, -9.728415489196777, -0.007678753696382046, 1.1501551866531372, -0.202250674366951, -1.9439527988433838, -0.9108517169952393
135, 4176117233, -2.118173122406006, 83.56224060058594, 40.106990814208984, -9.730995178222656, -0.027133455500006676, 1.1216014623641968, -0.17352604866027832, -2.0061402320861816, -0.8280073404312134
136, 4176133900, -2.1194095611572266, 83.53950500488281, 40.099342346191406, -9.736583709716797, -0.05286269262433052, 1.1382100582122803, -0.32789382338523865, -1.6198495626449585, -0.6393186450004578
137, 4176150567, -2.1470062732696533, 83.52271270751953, 40.07173156738281, -9.70233154296875, -0.024308010935783386, 1.1232119798660278, -0.5122924447059631, -1.260119080543518, -0.7834540605545044
138, 4176167234, -2.170335054397583, 83.50692749023438, 40.05173110961914, -9.700474739074707, -0.023524470627307892, 1.1072276830673218, -0.6544557213783264, -1.1978036165237427, -0.737581729888916
139, 4176183901, -2.1891672611236572, 83.48937225341797, 40.03427505493164, -9.711250305175781, -0.051732178777456284, 1.1297950744628906, -0.8120250105857849, -1.3046725988388062, -0.6945651769638062
140, 4176200568, -2.210113525390625, 83.46658325195312, 40.022274017333984, -9.704498291015625, -0.030139319598674774, 1.1309185028076172, -1.1534936428070068, -1.6211687326431274, -0.6818997859954834
141, 4176217235, -2.244577169418335, 83.4378890991211, 39.99271011352539, -9.721686363220215, -0.049265068024396896, 1.1579440832138062, -1.183358073234558, -1.9673370122909546, -0.7865532040596008
142, 4176233902, -2.292196035385132, 83.4066162109375, 39.96445846557617, -9.742267608642578, -0.06694073975086212, 1.148227572441101, -1.2904703617095947, -2.1146230697631836, -0.872086763381958
143, 4176250569, -2.35074782371521, 83.37244415283203, 39.92144012451172, -9.777613639831543, -0.09191758185625076, 1.1643122434616089, -1.7504231929779053, -2.2854084968566895, -0.9039875268936157
144, 4176267236, -2.4187607765197754, 83.33455657958984, 39.87836837768555, -9.763258934020996, -0.06217598542571068, 1.2111111879348755, -1.9289052486419678, -2.509071111679077, -0.9585936665534973
145, 4176283903, -2.471163511276245, 83.29390716552734, 39.85105895996094, -9.731093406677246, -0.04797453433275223, 1.1498351097106934, -1.857381820678711, -2.678678512573242, -0.867220401763916
146, 4176300570, -2.4902749061584473, 83.2525863647461, 39.854679107666016, -9.724966049194336, -0.04714864864945412, 1.0970594882965088, -1.3056586980819702, -2.716508626937866, -0.6996749043464661
147, 4176317237, -2.4910852909088135, 83.21095275878906, 39.860103607177734, -9.721174240112305, -0.07508208602666855, 1.122253179550171, -1.1058027744293213, -2.7474615573883057, -0.5959306955337524
148, 4176333904, -2.490147113800049, 83.16746520996094, 39.87083435058594, -9.72679615020752, -0.07827668637037277, 1.1429991722106934, -0.8500855565071106, -2.857365846633911, -0.6157549619674683
149, 4176350571, -2.494790554046631, 83.12696838378906, 39.88398742675781, -9.751734733581543, -0.08486934751272202, 1.1411218643188477, -1.011586308479309, -2.6778717041015625, -0.6262561678886414
150, 4176367238, -2.5006608963012695, 83.08928680419922, 39.886898040771484, -9.726937294006348, -0.06839367747306824, 1.1338165998458862, -0.9708364605903625, -2.5126953125, -0.6304822564125061
151, 4176383905, -2.4737188816070557, 83.05728912353516, 39.9255256652832, -9.702105522155762, -0.07436835020780563, 1.1489742994308472, -0.820233941078186, -2.1882338523864746, -0.393859326839447
152, 4176400572, -2.4336721897125244, 83.02934265136719, 39.97121810913086, -9.72705364227295, -0.09410975128412247, 1.2524141073226929, -0.596545398235321, -1.9487806558609009, -0.31105339527130127
153, 4176417239, -2.381161689758301, 83.0024642944336, 40.00664138793945, -9.736948013305664, -0.08083365857601166, 1.3699383735656738, -0.08381754904985428, -1.881073236465454, -0.2741454839706421
154, 4176433906, -2.285118341445923, 82.97529602050781, 40.088863372802734, -9.665802955627441, 0.027660217136144638, 1.109680414199829, 0.6386206150054932, -1.8952116966247559, -0.035550422966480255
155, 4176450573, -2.216231346130371, 82.95193481445312, 40.14383316040039, -9.76807975769043, -0.07475747913122177, 1.2613170146942139, 0.4952535629272461, -1.6620464324951172, -0.2115480750799179
156, 4176467240, -2.130969524383545, 82.9305648803711, 40.19313049316406, -9.654232025146484, 0.00634751608595252, 0.9356061816215515, 1.8050999641418457, -1.5424480438232422, -0.24170705676078796
157, 4176483907, -2.0570263862609863, 82.91275024414062, 40.22865295410156, -9.696589469909668, -0.10703523457050323, 1.0814863443374634, 1.7002415657043457, -1.33668851852417, -0.30616143345832825
158, 4176500574, -2.0009753704071045, 82.90151977539062, 40.26504135131836, -9.749427795410156, -0.036161333322525024, 1.2334102392196655, 0.6485455632209778, -0.9566982984542847, -0.28955158591270447
159, 4176517241, -1.9781132936477661, 82.8941650390625, 40.28556442260742, -9.722136497497559, 0.012749038636684418, 1.2042406797409058, -0.16118071973323822, -0.7108035683631897, -0.4272325932979584
160, 4176533908, -2.03607439994812, 82.8843994140625, 40.23689651489258, -9.664793014526367, 0.017760002985596657, 1.0050559043884277, -0.8742510676383972, -0.8405063152313232, -0.9512044787406921
161, 4176550575, -2.148664712905884, 82.87866973876953, 40.136653900146484, -9.754894256591797, -0.07310400158166885, 1.2568477392196655, -1.020947813987732, -0.5988121032714844, -1.3379818201065063
162, 4176567242, -2.263275146484375, 82.86793518066406, 40.02680206298828, -9.710087776184082, -0.06476806104183197, 1.3582521677017212, -0.8415820598602295, -0.8906303644180298, -1.3871837854385376
163, 4176583909, -2.3274245262145996, 82.85419464111328, 39.96394348144531, -9.72713565826416, -0.06372404843568802, 1.2881546020507812, -0.5630311965942383, -1.0698297023773193, -1.0505048036575317
164, 4176600576, -2.3458588123321533, 82.84503173828125, 39.966556549072266, -9.71554183959961, -0.07034239917993546, 1.2096680402755737, -0.5232930779457092, -0.8118329048156738, -0.7022490501403809
165, 4176617243, -2.363682508468628, 82.83346557617188, 39.95915985107422, -9.688071250915527, -0.05830778926610947, 1.1998215913772583, -0.5156989097595215, -0.9522289037704468, -0.7023002505302429
166, 4176633910, -2.3671329021453857, 82.81364440917969, 39.954872131347656, -9.700389862060547, -0.04612167552113533, 1.16581130027771, -0.3851381540298462, -1.457400918006897, -0.6307894587516785
167, 4176650577, -2.3880655765533447, 82.79251861572266, 39.93659210205078, -9.699682235717773, -0.06330741196870804, 1.1322197914123535, -0.5666425824165344, -1.5285019874572754, -0.743767261505127
168, 4176667244, -2.431865930557251, 82.77230072021484, 39.895416259765625, -9.664824485778809, -0.05370847135782242, 1.0137839317321777, -0.9364899396896362, -1.4795559644699097, -0.8685778379440308
169, 4176683911, -2.4914052486419678, 82.75437927246094, 39.86088943481445, -9.7298002243042, -0.16472865641117096, 1.2685003280639648, -2.1039679050445557, -1.3555649518966675, -0.836203396320343
170, 4176700578, -2.5433130264282227, 82.72891998291016, 39.82853317260742, -9.637346267700195, 0.046718817204236984, 1.1289645433425903, -1.9769163131713867, -1.8015971183776855, -0.8085672855377197
171, 4176717245, -2.557241678237915, 82.71463012695312, 39.8335075378418, -9.739629745483398, 0.0037443076726049185, 1.2736589908599854, -1.6712926626205444, -1.1510859727859497, -0.5341784954071045
172, 4176733912, -2.577336072921753, 82.70259857177734, 39.842689514160156, -9.680066108703613, 0.012999842874705791, 1.2969427108764648, -1.6408519744873047, -1.0108691453933716, -0.5845330357551575
173, 4176750579, -2.5651848316192627, 82.69978332519531, 39.867305755615234, -9.695343017578125, 0.008198759518563747, 1.2920284271240234, -0.9451981782913208, -0.45912042260169983, -0.40446293354034424
174, 4176767246, -2.541363477706909, 82.70496368408203, 39.909706115722656, -9.75060749053955, -0.040861744433641434, 1.2883501052856445, -0.6429555416107178, 0.021354585886001587, -0.3361794948577881
175, 4176783913, -2.519103527069092, 82.71485137939453, 39.95121383666992, -9.749750137329102, -0.06874428689479828, 1.2568175792694092, -1.4215816259384155, 0.29446280002593994, -0.2364180088043213
176, 4176800580, -2.497857093811035, 82.72560119628906, 40.00029373168945, -9.724458694458008, -0.05033111572265625, 1.2346166372299194, -1.905021071434021, 0.34608516097068787, -0.18078722059726715
177, 4176817247, -2.450329542160034, 82.74039459228516, 40.087890625, -9.69970417022705, -0.05533471331000328, 1.2337144613265991, -2.0889720916748047, 0.5824264287948608, 0.05412604287266731
178, 4176833914, -2.387432098388672, 82.75418853759766, 40.167938232421875, -9.694528579711914, -0.05792833864688873, 1.2523643970489502, -1.9440678358078003, 0.5170883536338806, 0.14818866550922394
179, 4176850581, -2.322044610977173, 82.76004028320312, 40.2607536315918, -9.720616340637207, -0.09402188658714294, 1.2541773319244385, -1.8411688804626465, 0.051411084830760956, 0.13357661664485931
180, 4176867248, -2.286517381668091, 82.76380920410156, 40.31741714477539, -9.725661277770996, -0.11485811322927475, 1.230922818183899, -1.9393551349639893, -0.07662039250135422, -0.08484206348657608
181, 4176883915, -2.2772915363311768, 82.76600646972656, 40.349365234375, -9.728358268737793, -0.12582707405090332, 1.2611931562423706, -2.31614351272583, -0.15479035675525665, -0.2357265055179596
182, 4176900582, -2.273653268814087, 82.76720428466797, 40.3807487487793, -9.7100830078125, -0.0973421186208725, 1.2151670455932617, -2.3612091541290283, -0.2157357782125473, -0.2711104452610016
183, 4176917249, -2.2680747509002686, 82.770751953125, 40.41145706176758, -9.732014656066895, -0.08992970734834671, 1.190961241722107, -2.2933995723724365, -0.07968110591173172, -0.2564343512058258
184, 4176933916, -2.2705237865448, 82.77813720703125, 40.44790267944336, -9.736566543579102, -0.11972007155418396, 1.2293083667755127, -2.4502389430999756, 0.15533462166786194, -0.28697749972343445
185, 4176950583, -2.2747018337249756, 82.78142547607422, 40.49746322631836, -9.748211860656738, -0.08931680768728256, 1.2368412017822266, -3.1347897052764893, -0.09867292642593384, -0.2199234664440155
186, 4176967250, -2.266878366470337, 82.78577423095703, 40.56767654418945, -9.708100318908691, -0.02620859257876873, 1.2170268297195435, -3.414569854736328, -0.03061998263001442, -0.08744174242019653
187, 4176983917, -2.2601428031921387, 82.7870864868164, 40.63212203979492, -9.702962875366211, -0.020670494064688683, 1.1987301111221313, -3.769523859024048, -0.22311224043369293, -0.06031791493296623
188, 4177000584, -2.2120189666748047, 82.78890228271484, 40.739051818847656, -9.669327735900879, -0.009690012782812119, 1.1951603889465332, -3.4580986499786377, -0.21303361654281616, 0.2133345752954483
189, 4177017251, -2.1468708515167236, 82.79190063476562, 40.84565353393555, -9.687443733215332, -0.05820933356881142, 1.297339916229248, -2.7345399856567383, -0.12190365791320801, 0.2522915005683899
190, 4177033918, -2.0645387172698975, 82.78267669677734, 40.98368835449219, -9.727086067199707, -0.10265050828456879, 1.408929467201233, -3.030968427658081, -0.8710110187530518, 0.3929436206817627
191, 4177050585, -1.9677644968032837, 82.76622772216797, 41.12058639526367, -9.682456016540527, 0.03606819733977318, 1.138019323348999, -2.551421642303467, -1.2872941493988037, 0.4338214695453644
192, 4177067252, -1.8388748168945312, 82.75638580322266, 41.301307678222656, -9.808198928833008, -0.14607609808444977, 1.4642008543014526, -3.057042121887207, -0.9088537693023682, 0.7530837059020996
193, 4177083919, -1.7008559703826904, 82.75467681884766, 41.472412109375, -9.53835391998291, 0.15565252304077148, 0.7217506170272827, -2.20393443107605, -0.4050520360469818, 0.7382156848907471
194, 4177100586, -1.5503058433532715, 82.771484375, 41.653560638427734, -9.72205924987793, -0.130680114030838, 1.158086895942688, -1.2187035083770752, 0.6824696063995361, 0.7274455428123474
195, 4177117253, -1.4658766984939575, 82.78563690185547, 41.775997161865234, -9.687922477722168, -0.019036196172237396, 1.2694370746612549, -2.3258635997772217, 0.5291264057159424, 0.3625669777393341
196, 4177133920, -1.4098832607269287, 82.81135559082031, 41.887115478515625, -9.733141899108887, -0.0028710768092423677, 1.2877446413040161, -2.836286783218384, 1.2309784889221191, 0.22591045498847961
197, 4177150587, -1.4332817792892456, 82.836669921875, 41.896934509277344, -9.679688453674316, -0.015881886705756187, 1.020245909690857, -3.067671060562134, 1.2328351736068726, -0.34898582100868225
198, 4177167254, -1.517949104309082, 82.86851501464844, 41.87895202636719, -9.752363204956055, -0.1396830976009369, 1.1532695293426514, -3.0638294219970703, 1.6198176145553589, -0.8021513223648071
199, 4177183921, -1.637432336807251, 82.89665222167969, 41.824317932128906, -9.73236083984375, -0.09025919437408447, 1.320479154586792, -3.093488931655884, 1.399855613708496, -1.0559474229812622
200, 4177200588, -1.7146403789520264, 82.92293548583984, 41.77886199951172, -9.681351661682129, -0.049168892204761505, 1.2612693309783936, -2.4124343395233154, 1.2945234775543213, -0.8186203241348267
201, 4177217255, -1.7024977207183838, 82.95132446289062, 41.80416488647461, -9.697044372558594, -0.0779716745018959, 1.2167848348617554, -1.6453468799591064, 1.4034030437469482, -0.24179670214653015
202, 4177233922, -1.6909099817276, 82.97652435302734, 41.84527587890625, -9.692183494567871, -0.13062481582164764, 1.1862788200378418, -1.1811808347702026, 1.2126652002334595, -0.3088763356208801
203, 4177250589, -1.7065504789352417, 82.9962158203125, 41.83994674682617, -9.731735229492188, -0.12267213314771652, 1.1996089220046997, -1.6047379970550537, 0.8905855417251587, -0.46239885687828064
204, 4177267256, -1.7320162057876587, 83.00663757324219, 41.853912353515625, -9.73319149017334, -0.07514525204896927, 1.2027395963668823, -1.7996889352798462, 0.33262568712234497, -0.5239077210426331
205, 4177283923, -1.781226396560669, 83.00967407226562, 41.83157730102539, -9.716890335083008, -0.04917658120393753, 1.061702013015747, -1.6048790216445923, -0.10161837935447693, -0.7339958548545837
206, 4177300590, -1.82817804813385, 83.00872039794922, 41.81699752807617, -9.789505004882812, -0.17931228876113892, 1.3443793058395386, -1.591073751449585, -0.34392738342285156, -0.725185215473175
207, 4177317257, -1.8589924573898315, 82.99588012695312, 41.797367095947266, -9.658095359802246, 0.006472320761531591, 1.1568312644958496, -1.020192265510559, -1.059738278388977, -0.6928107738494873
208, 4177333924, -1.8403351306915283, 82.99341583251953, 41.82252502441406, -9.756378173828125, -0.07717549800872803, 1.2275747060775757, -0.7349308133125305, -0.44590431451797485, -0.34542566537857056
209, 4177350591, -1.8371819257736206, 82.98155212402344, 41.852577209472656, -9.711791038513184, -0.04948499798774719, 1.2510913610458374, -1.209303617477417, -1.0110996961593628, -0.4188316762447357
210, 4177367258, -1.7798571586608887, 82.97686004638672, 41.90812683105469, -9.65501594543457, 0.00396601390093565, 1.1753848791122437, -0.06788645684719086, -0.5746721029281616, -0.14395616948604584
211, 4177383925, -1.7001246213912964, 82.97982788085938, 41.9814567565918, -9.69665813446045, -0.04675503075122833, 1.2302473783493042, 0.22183801233768463, -0.12783299386501312, -0.002958266995847225
212, 4177400592, -1.625194787979126, 82.98905181884766, 42.03982925415039, -9.697555541992188, -0.04375166445970535, 1.2086079120635986, -0.11986743658781052, 0.2607436776161194, 0.01507947500795126
213, 4177417259, -1.5461556911468506, 82.99971771240234, 42.128719329833984, -9.725263595581055, -0.05507359281182289, 1.1805775165557861, -0.34857597947120667, 0.33618587255477905, 0.07388623058795929
214, 4177433926, -1.4765169620513916, 83.01573944091797, 42.19544219970703, -9.706942558288574, -0.06761892884969711, 1.1728386878967285, -0.24421709775924683, 0.6605579257011414, 4.482221993384883E-5
215, 4177450593, -1.4050885438919067, 83.04088592529297, 42.245174407958984, -9.667214393615723, -0.014096716418862343, 1.212845802307129, 0.3412187993526459, 1.211090087890625, -0.045116767287254333
216, 4177467260, -1.3185131549835205, 83.06644439697266, 42.31627655029297, -9.679137229919434, -0.011443240568041801, 1.1792649030685425, 0.7459378242492676, 1.2406727075576782, 0.011813856661319733
217, 4177483927, -1.2402819395065308, 83.09766387939453, 42.36437225341797, -9.690982818603516, -0.05746787041425705, 1.1601669788360596, 1.083449125289917, 1.5822051763534546, -0.08657091856002808
218, 4177500594, -1.168272614479065, 83.1243667602539, 42.41508102416992, -9.724292755126953, -0.10851418226957321, 1.1631810665130615, 0.9532983899116516, 1.3088154792785645, -0.12437527626752853
219, 4177517261, -1.1031807661056519, 83.14161682128906, 42.468929290771484, -9.711849212646484, -0.09070710092782974, 1.140674114227295, 0.952837347984314, 0.7410714626312256, -0.18712639808654785
220, 4177533928, -1.0461596250534058, 83.15748596191406, 42.503021240234375, -9.748085021972656, -0.09573230892419815, 1.124492883682251, 0.9246503114700317, 0.6675757169723511, -0.2407209426164627
221, 4177550595, -0.9994944334030151, 83.16321563720703, 42.53028869628906, -9.751788139343262, -0.12970903515815735, 1.1671417951583862, 0.711732029914856, 0.04882420226931572, -0.29901543259620667
222, 4177567262, -0.9658129811286926, 83.16617584228516, 42.550899505615234, -9.736360549926758, -0.06652818620204926, 1.1676208972930908, 0.5202515125274658, -0.11197870969772339, -0.36846423149108887
223, 4177583929, -0.9355996251106262, 83.16051483154297, 42.59090805053711, -9.699679374694824, -0.062723308801651, 1.145026445388794, 0.2063038945198059, -0.6260383725166321, -0.36203548312187195
224, 4177600596, -0.9051479697227478, 83.15536499023438, 42.614723205566406, -9.708501815795898, -0.024371853098273277, 1.1047083139419556, -0.07728631794452667, -0.6081094741821289, -0.3241671323776245
225, 4177617263, -0.8639692068099976, 83.14762878417969, 42.64510726928711, -9.714620590209961, -0.030680282041430473, 1.140670657157898, 0.14329664409160614, -0.7530518174171448, -0.2743760347366333
226, 4177633930, -0.7904539108276367, 83.1418228149414, 42.700931549072266, -9.756467819213867, -0.06833730638027191, 1.3017858266830444, 0.48461154103279114, -0.6498709917068481, -0.08066719770431519
227, 4177650597, -0.7226665616035461, 83.13062286376953, 42.761627197265625, -9.733207702636719, -0.05071331560611725, 1.371636986732483, 0.4507898688316345, -0.9636393785476685, -0.11849715560674667
228, 4177667264, -0.6234403848648071, 83.12574005126953, 42.838539123535156, -9.749463081359863, -0.022817077115178108, 1.2153159379959106, 0.8959385752677917, -0.5764265656471252, 0.060887787491083145
229, 4177683931, -0.5592358708381653, 83.11279296875, 42.90342330932617, -9.699535369873047, 0.04613321274518967, 1.0898475646972656, 0.05302468314766884, -1.054141879081726, -0.09479258954524994
230, 4177700598, -0.41949212551116943, 83.12864685058594, 43.004249572753906, -9.681819915771484, 8.530108025297523E-4, 0.8187755942344666, 2.277705430984497, 0.6675630211830139, 0.19710895419120789
231, 4177717265, -0.30964404344558716, 83.13584899902344, 43.08455276489258, -9.7197265625, -0.09964654594659805, 1.163728952407837, 1.3724884986877441, 0.13170689344406128, 0.08315803110599518
232, 4177733932, -0.20400992035865784, 83.15192413330078, 43.15788269042969, -9.708342552185059, 0.04632975533604622, 1.2279670238494873, 0.9077203869819641, 0.6686387658119202, 0.11129357665777206
233, 4177750599, -0.1437891125679016, 83.1634521484375, 43.22395706176758, -9.720094680786133, 0.03373396769165993, 1.1199357509613037, 0.1675390750169754, 0.3974642753601074, -0.13282744586467743
234, 4177767266, -0.18504460155963898, 83.16560363769531, 43.19291687011719, -9.69376277923584, -0.05512462183833122, 0.9523274898529053, -0.6938992142677307, -0.16388285160064697, -0.7636298537254333
235, 4177783933, -0.29720431566238403, 83.16510772705078, 43.09360885620117, -9.770037651062012, -0.09093912690877914, 1.2487598657608032, -1.043986439704895, -0.3304806649684906, -1.229166030883789
236, 4177800600, -0.39688512682914734, 83.15897369384766, 43.005828857421875, -9.712188720703125, -0.009904910810291767, 1.2991023063659668, -0.46927589178085327, -0.6637787818908691, -1.2097007036209106
237, 4177817267, -0.4296679198741913, 83.151123046875, 42.97613525390625, -9.71813678741455, -0.042922310531139374, 1.2008649110794067, 0.0643070861697197, -0.7619906067848206, -0.7927386164665222
238, 4177833934, -0.4303520619869232, 83.14167785644531, 42.95615768432617, -9.722265243530273, -0.08160459995269775, 1.166142225265503, -0.22824758291244507, -0.8568985462188721, -0.5249579548835754
239, 4177850601, -0.43626677989959717, 83.12921905517578, 42.95408248901367, -9.697344779968262, -0.08138943463563919, 1.1223351955413818, -0.3762889802455902, -1.041258692741394, -0.5443083047866821
240, 4177867268, -0.4683064818382263, 83.11080169677734, 42.92585372924805, -9.703957557678223, -0.05585115775465965, 1.166614294052124, -0.23027096688747406, -1.3940223455429077, -0.7519888877868652
241, 4177883935, -0.49893930554389954, 83.09175109863281, 42.89151382446289, -9.7293701171875, -0.020424097776412964, 1.1491384506225586, -0.44843995571136475, -1.4309816360473633, -0.7147480249404907
242, 4177900602, -0.5207079648971558, 83.07975006103516, 42.86606216430664, -9.709837913513184, -0.012430277653038502, 1.021904706954956, -0.17577996850013733, -1.016222357749939, -0.68128502368927
243, 4177917269, -0.5679526329040527, 83.068115234375, 42.83039093017578, -9.790035247802734, -0.15195181965827942, 1.3491095304489136, -0.8851108551025391, -0.999522864818573, -0.7822245955467224
244, 4177933936, -0.5955662131309509, 83.04545593261719, 42.81808090209961, -9.666879653930664, 0.09022599458694458, 1.1225110292434692, -0.5476251244544983, -1.647485613822937, -0.6824119687080383
245, 4177950603, -0.6034135222434998, 83.02352142333984, 42.81150817871094, -9.771439552307129, -0.00973319448530674, 1.2388466596603394, -0.4941714406013489, -1.6132415533065796, -0.54936683177948
246, 4177967270, -0.5993552803993225, 82.99859619140625, 42.81132507324219, -9.687341690063477, 0.03747532516717911, 1.2414788007736206, -0.37999001145362854, -1.7910958528518677, -0.4780353903770447
247, 4177983937, -0.5777148604393005, 82.97314453125, 42.83384323120117, -9.698345184326172, -0.00965395662933588, 1.2298308610916138, 0.26589179039001465, -1.814646601676941, -0.4307158887386322
248, 4178000604, -0.5626309514045715, 82.9503173828125, 42.848209381103516, -9.731536865234375, -0.04802621528506279, 1.238329529762268, 0.13794361054897308, -1.6626100540161133, -0.4619506597518921
249, 4178017271, -0.5457552075386047, 82.93203735351562, 42.858177185058594, -9.73015308380127, -0.050373394042253494, 1.2270175218582153, -0.20071391761302948, -1.3824325799942017, -0.40254196524620056
250, 4178033938, -0.544243335723877, 82.91883850097656, 42.86514663696289, -9.726930618286133, -0.040577881038188934, 1.2226955890655518, -0.3227072060108185, -1.0791910886764526, -0.4969119429588318
251, 4178050605, -0.5461598038673401, 82.90574645996094, 42.87571334838867, -9.718656539916992, -0.06320003420114517, 1.216401219367981, -0.45497122406959534, -1.0722500085830688, -0.5059661269187927
252, 4178067272, -0.5391011238098145, 82.89883422851562, 42.87599182128906, -9.698256492614746, -9.749073069542646E-4, 1.2016234397888184, -0.20187929272651672, -0.6979076266288757, -0.4637051224708557
253, 4178083939, -0.5427186489105225, 82.88832092285156, 42.86182403564453, -9.698834419250488, -0.014352677389979362, 1.235255241394043, -0.11792086809873581, -0.9188042879104614, -0.5584080219268799
254, 4178100606, -0.5712869167327881, 82.87186431884766, 42.8373908996582, -9.722536087036133, -0.018246714025735855, 1.2400102615356445, -0.32165709137916565, -1.2631287574768066, -0.7233411073684692
255, 4178117273, -0.6068870425224304, 82.8540267944336, 42.81623077392578, -9.703718185424805, -0.04732578620314598, 1.2366645336151123, -0.44742828607559204, -1.3546301126480103, -0.7638219594955444
256, 4178133940, -0.6545901298522949, 82.8321304321289, 42.765869140625, -9.732913970947266, -0.05252896994352341, 1.2540087699890137, -0.29838794469833374, -1.5968108177185059, -0.8763768672943115
257, 4178150607, -0.6989416480064392, 82.81076049804688, 42.7327766418457, -9.72262191772461, -0.0727977305650711, 1.215376377105713, -0.48943305015563965, -1.5588144063949585, -0.827187716960907
258, 4178167274, -0.7417855262756348, 82.78860473632812, 42.68809509277344, -9.725162506103516, -0.07054123282432556, 1.2004212141036987, -0.38375505805015564, -1.609399437904358, -0.8289806246757507
259, 4178183941, -0.7905524969100952, 82.7690200805664, 42.64668655395508, -9.701555252075195, -0.04962063953280449, 1.221030831336975, -0.420547753572464, -1.4548014402389526, -0.8690133690834045
260, 4178200608, -0.8295100927352905, 82.74918365478516, 42.60531997680664, -9.712647438049316, -0.06398384273052216, 1.2357888221740723, -0.08851750195026398, -1.466019868850708, -0.8377786874771118
261, 4178217275, -0.8772116303443909, 82.73291778564453, 42.56621170043945, -9.684037208557129, -0.06752949208021164, 1.2085810899734497, -0.4403079152107239, -1.2528709173202515, -0.8564374446868896
262, 4178233942, -0.931026816368103, 82.71820831298828, 42.51872253417969, -9.683001518249512, -0.017948228865861893, 1.223610281944275, -0.504582941532135, -1.1601145267486572, -0.8938191533088684
263, 4178250609, -0.9652061462402344, 82.70951080322266, 42.4808349609375, -9.695915222167969, -0.0115096066147089, 1.2873961925506592, -0.03356543928384781, -0.7964396476745605, -0.7992058396339417
264, 4178267276, -0.9616835117340088, 82.7003402709961, 42.46403884887695, -9.742743492126465, -0.10728595405817032, 1.4124549627304077, 0.4250876009464264, -0.8320029377937317, -0.5700491070747375
265, 4178283943, -0.9557826519012451, 82.685791015625, 42.47824478149414, -9.7188081741333, -0.02230433002114296, 1.3067548274993896, 0.17970512807369232, -1.1493315696716309, -0.5234980583190918
266, 4178300610, -0.9346294403076172, 82.68045043945312, 42.50222396850586, -9.733545303344727, -0.01993735507130623, 1.2969759702682495, 0.1737629622220993, -0.596993625164032, -0.3958570957183838
267, 4178317277, -0.9284964799880981, 82.67445373535156, 42.49056625366211, -9.680476188659668, -0.055451489984989166, 1.1271283626556396, 0.8257086277008057, -0.629713773727417, -0.597198486328125
268, 4178333944, -0.9108138680458069, 82.66572570800781, 42.48323440551758, -9.607879638671875, -0.0153103768825531, 1.1036320924758911, 1.7158011198043823, -0.8024842739105225, -0.6263585686683655
269, 4178350611, -0.8885213136672974, 82.67091369628906, 42.48673629760742, -9.740458488464355, -0.07719718664884567, 1.2421455383300781, 1.030879020690918, 0.029076816514134407, -0.48950985074043274
270, 4178367278, -0.9024198651313782, 82.67913818359375, 42.46836471557617, -9.744492530822754, -0.0030683858785778284, 1.3317545652389526, -0.04455329105257988, 0.22551339864730835, -0.6241942644119263
271, 4178383945, -0.991711437702179, 82.69105529785156, 42.381935119628906, -9.6105375289917, 0.03933579847216606, 1.0106920003890991, -0.5503401160240173, 0.43934106826782227, -1.137946605682373
272, 4178400612, -1.164136290550232, 82.70362854003906, 42.22314453125, -9.727381706237793, -0.1666250079870224, 1.237884759902954, -1.1510348320007324, 0.4933069944381714, -1.6991722583770752
273, 4178417279, -1.340467929840088, 82.71328735351562, 42.0689697265625, -9.714823722839355, -0.07533825933933258, 1.4201174974441528, -1.4297521114349365, 0.3178984224796295, -1.689068078994751
274, 4178433946, -1.4454518556594849, 82.7254867553711, 41.96658706665039, -9.688644409179688, -0.010949320159852505, 1.3052555322647095, -0.4711071252822876, 0.4709727168083191, -1.2540615797042847
275, 4178450613, -1.4972412586212158, 82.74515533447266, 41.91273880004883, -9.69375991821289, -0.09713567048311234, 1.240510106086731, 0.3200370669364929, 0.9120233058929443, -0.937834620475769
276, 4178467280, -1.5468984842300415, 82.76820373535156, 41.854068756103516, -9.696639060974121, -0.13323329389095306, 1.1943329572677612, 0.42483147978782654, 1.1149271726608276, -0.9251307845115662
277, 4178483947, -1.607828974723816, 82.78414916992188, 41.79252243041992, -9.708456993103027, -0.13394655287265778, 1.207084059715271, -3.2015875331126153E-4, 0.6923946142196655, -0.9621283411979675
278, 4178500614, -1.6836551427841187, 82.78713989257812, 41.715274810791016, -9.748381614685059, -0.07356036454439163, 1.2373663187026978, -0.18833017349243164, -0.0790407806634903, -1.0689587593078613
279, 4178517281, -1.7566908597946167, 82.78443908691406, 41.644657135009766, -9.747953414916992, -0.018502449616789818, 1.2336379289627075, -0.2684594988822937, -0.4251451790332794, -1.0462018251419067
280, 4178533948, -1.8170632123947144, 82.77999114990234, 41.58399963378906, -9.759485244750977, -0.058488503098487854, 1.2001322507858276, -0.21413497626781464, -0.5388014912605286, -0.9627044796943665
281, 4178550615, -1.9022318124771118, 82.76665496826172, 41.49756622314453, -9.71911334991455, -0.08623002469539642, 1.3691928386688232, -0.44568660855293274, -1.0618257522583008, -1.1400853395462036
282, 4178567282, -1.9501498937606812, 82.75586700439453, 41.437660217285156, -9.652756690979004, 0.023366253823041916, 1.1989541053771973, 0.46478721499443054, -0.9053577780723572, -0.9677886962890625
283, 4178583949, -1.9871362447738647, 82.75394439697266, 41.401424407958984, -9.735799789428711, -0.0382678285241127, 1.3277440071105957, 0.19359998404979706, -0.37815868854522705, -0.8356527090072632
284, 4178600616, -2.0151779651641846, 82.74520874023438, 41.35948181152344, -9.690634727478027, -0.02721121348440647, 1.2941598892211914, 0.1160191148519516, -0.7890631556510925, -0.7722612619400024
285, 4178617283, -2.0168285369873047, 82.73917388916016, 41.33993148803711, -9.717185020446777, -0.08435728400945663, 1.2875579595565796, 0.5578893423080444, -0.6254492998123169, -0.6238356828689575
286, 4178633950, -2.0009336471557617, 82.74169158935547, 41.34542465209961, -9.704936027526855, -0.07299396395683289, 1.2946120500564575, 0.6693174839019775, -0.12369652837514877, -0.4859113395214081
287, 4178650617, -1.9762812852859497, 82.74769592285156, 41.3525390625, -9.710638999938965, -0.05119261518120766, 1.2538188695907593, 0.8745263814926147, 0.09289085865020752, -0.4364531636238098
288, 4178667284, -1.9579662084579468, 82.75595092773438, 41.35170364379883, -9.725617408752441, -0.11699685454368591, 1.2432918548583984, 0.7779409885406494, 0.22674283385276794, -0.4675598442554474
289, 4178683951, -1.9546399116516113, 82.76396942138672, 41.34660720825195, -9.710193634033203, -0.08247824758291245, 1.2417705059051514, 0.5511148571968079, 0.21522991359233856, -0.5531831383705139
290, 4178700618, -1.9594751596450806, 82.76988983154297, 41.330421447753906, -9.712578773498535, -0.06805165112018585, 1.2663850784301758, 0.48814600706100464, 0.09678398817777634, -0.6107091903686523
291, 4178717285, -1.9843868017196655, 82.7748794555664, 41.29137420654297, -9.710525512695312, -0.07353755086660385, 1.2602304220199585, 0.364462286233902, 0.03580015152692795, -0.7486847639083862
292, 4178733952, -2.0087890625, 82.78047180175781, 41.255401611328125, -9.697249412536621, -0.08019068837165833, 1.2282716035842896, 0.5330706834793091, 0.08383676409721375, -0.7634376287460327
293, 4178750619, -2.051516532897949, 82.78656768798828, 41.20638656616211, -9.701967239379883, -0.09246725589036942, 1.2365636825561523, 0.21519148349761963, 0.11384206265211105, -0.8601640462875366
294, 4178767286, -2.0931503772735596, 82.79747772216797, 41.15339279174805, -9.692032814025879, -0.0827476903796196, 1.2785298824310303, 0.2553650140762329, 0.4012293219566345, -0.8442073464393616
295, 4178783953, -2.1333699226379395, 82.80380249023438, 41.104637145996094, -9.704867362976074, -0.09377273917198181, 1.2409570217132568, 0.49206477403640747, 0.13595861196517944, -0.8736618161201477
296, 4178800620, -2.163996696472168, 82.81070709228516, 41.05617904663086, -9.720725059509277, -0.07244537025690079, 1.2347309589385986, 0.4950358271598816, 0.15997052192687988, -0.7956967949867249
297, 4178817287, -2.183439254760742, 82.8145751953125, 41.030696868896484, -9.699904441833496, -0.0760258361697197, 1.2425475120544434, 0.646906316280365, -0.025318153202533722, -0.7395538687705994
298, 4178833954, -2.197193145751953, 82.81438446044922, 41.00901794433594, -9.710328102111816, -0.05527474358677864, 1.2389740943908691, 0.6007009744644165, -0.27085426449775696, -0.699828565120697
299, 4178850621, -2.208989381790161, 82.81299591064453, 40.987308502197266, -9.695039749145508, -0.050880610942840576, 1.2370110750198364, 0.5890600681304932, -0.32876458764076233, -0.6856006979942322
300, 4178867288, -2.2177257537841797, 82.81076049804688, 40.96418380737305, -9.689141273498535, -0.07500084489583969, 1.242056965827942, 0.7581039667129517, -0.3894155025482178, -0.686535656452179
301, 4178883955, -2.2410614490509033, 82.8078384399414, 40.938331604003906, -9.715958595275879, -0.07420157641172409, 1.2732967138290405, 0.27151381969451904, -0.42600318789482117, -0.7386574149131775
302, 4178900622, -2.248845100402832, 82.8057632446289, 40.92446517944336, -9.725404739379883, -0.07954281568527222, 1.3941662311553955, 0.5241446495056152, -0.3780178427696228, -0.6491922736167908
303, 4178917289, -2.219438076019287, 82.8038558959961, 40.941532135009766, -9.714619636535645, -0.05381171777844429, 1.43684720993042, 0.7457329034805298, -0.3731386065483093, -0.39479416608810425
304, 4178933956, -2.1737582683563232, 82.81297302246094, 40.97146224975586, -9.710968971252441, -0.0410701259970665, 1.307248830795288, 0.9436807036399841, 0.2871503531932831, -0.27246788144111633
305, 4178950623, -2.141885995864868, 82.82389068603516, 40.98799133300781, -9.701412200927734, -0.0675860270857811, 1.172450304031372, 0.8477482795715332, 0.4066976308822632, -0.36113905906677246
306, 4178967290, -2.0792970657348633, 82.83736419677734, 41.01141357421875, -9.627728462219238, -0.0333288311958313, 1.1001203060150146, 2.139793634414673, 0.5543932914733887, -0.28664451837539673
307, 4178983957, -2.0189859867095947, 82.85671997070312, 41.04249572753906, -9.700401306152344, -0.09968909621238708, 1.1916086673736572, 1.7034556865692139, 0.9003952741622925, -0.24028553068637848
308, 4179000624, -2.010236978530884, 82.87557983398438, 41.04287338256836, -9.781402587890625, -0.06176627427339554, 1.3639955520629883, 0.5570314526557922, 0.8768571615219116, -0.48423367738723755
309, 4179017291, -2.041862964630127, 82.8991928100586, 41.00968551635742, -9.635293960571289, 0.031359151005744934, 1.1483755111694336, -0.15747970342636108, 1.17583429813385, -0.6859465837478638
310, 4179033958, -2.167938232421875, 82.92471313476562, 40.89438247680664, -9.711008071899414, -0.13487443327903748, 1.084581732749939, -0.9316619038581848, 1.3112101554870605, -1.2898043394088745
311, 4179050625, -2.3324153423309326, 82.94860076904297, 40.7425422668457, -9.757160186767578, -0.14456598460674286, 1.3856315612792969, -1.0227535963058472, 1.2260478734970093, -1.5580204725265503
312, 4179067292, -2.4437358379364014, 82.97449493408203, 40.6336555480957, -9.69586181640625, -0.020069025456905365, 1.3156733512878418, -0.14163821935653687, 1.342431902885437, -1.259414792060852
313, 4179083959, -2.4941954612731934, 83.01346588134766, 40.57063293457031, -9.712481498718262, -0.10221518576145172, 1.2595751285552979, 0.6330499053001404, 2.113668918609619, -0.8679119944572449
314, 4179100626, -2.5200726985931396, 83.05423736572266, 40.535255432128906, -9.658637046813965, -0.13052761554718018, 1.2311701774597168, 0.33119142055511475, 2.2053496837615967, -0.6403174996376038
315, 4179117293, -2.5481531620025635, 83.08953857421875, 40.496437072753906, -9.659589767456055, -0.11624288558959961, 1.214219093322754, 0.3154395818710327, 1.8883280754089355, -0.6642780900001526
316, 4179133960, -2.5869905948638916, 83.12117767333984, 40.452877044677734, -9.646185874938965, -0.11345043778419495, 1.2086442708969116, -0.09337109327316284, 1.663051962852478, -0.6986760497093201
317, 4179150627, -2.600093364715576, 83.1570816040039, 40.43914031982422, -9.66528606414795, -0.08269663155078888, 1.2097426652908325, -0.05546429753303528, 1.9188330173492432, -0.5029693841934204
318, 4179167294, -2.587634563446045, 83.19640350341797, 40.44871139526367, -9.653392791748047, -0.058018025010824203, 1.167843222618103, 0.029614686965942383, 2.115064859390259, -0.3189549744129181
319, 4179183961, -2.556583881378174, 83.23757934570312, 40.47472381591797, -9.697979927062988, -0.16480323672294617, 1.4384796619415283, -0.010296305641531944, 2.2150440216064453, -0.17899437248706818
320, 4179200628, -2.5030007362365723, 83.27357482910156, 40.523109436035156, -9.578432083129883, -0.01543104276061058, 1.281913161277771, 0.22424554824829102, 1.9200876951217651, -0.05940864607691765
321, 4179217295, -2.3466811180114746, 83.33599853515625, 40.66806411743164, -9.666858673095703, -0.10622301697731018, 1.2856866121292114, 0.6831867694854736, 3.46587872505188, 0.6666921973228455
322, 4179233962, -2.143214464187622, 83.42947387695312, 40.86602020263672, -9.654808044433594, -0.10665935277938843, 1.2161147594451904, 0.30059707164764404, 5.325040817260742, 1.0903648138046265
323, 4179250629, -1.8606441020965576, 83.57123565673828, 41.13740539550781, -9.594171524047852, -0.1190325915813446, 1.0970402956008911, 0.44486066699028015, 8.221236228942871, 1.6704285144805908
324, 4179267296, -1.4997721910476685, 83.76605224609375, 41.49079132080078, -9.528191566467285, -0.1234360933303833, 1.1835041046142578, 0.2488594949245453, 11.385893821716309, 2.2112672328948975
325, 4179283963, -1.0154088735580444, 84.00985717773438, 41.958465576171875, -9.354089736938477, -0.0015273243188858032, 1.1056452989578247, 0.8123649954795837, 14.337186813354492, 2.844170570373535
326, 4179300630, -0.39806854724884033, 84.31266021728516, 42.5347785949707, -9.210834503173828, 0.05733168497681618, 0.9612104892730713, 2.2496747970581055, 17.902599334716797, 3.280100107192993
327, 4179317297, 0.43161001801490784, 84.68297576904297, 43.29115676879883, -9.134722709655762, 0.04624602571129799, 0.8182389736175537, 3.658069610595703, 22.00862693786621, 3.9341881275177
328, 4179333964, 1.4888620376586914, 85.12187194824219, 44.26215362548828, -9.081278800964355, -0.024369223043322563, 0.7204543948173523, 4.777926921844482, 26.19478416442871, 4.2878265380859375
329, 4179350631, 2.8581480979919434, 85.63031768798828, 45.534461975097656, -8.98224925994873, -0.07701340317726135, 0.6187837719917297, 4.870879650115967, 30.496204376220703, 4.588998317718506
330, 4179367298, 4.880668640136719, 86.20759582519531, 47.46692657470703, -8.702583312988281, -0.049712181091308594, 0.5308921337127686, 4.978816986083984, 34.89466857910156, 5.450527667999268
331, 4179383965, 8.092187881469727, 86.83838653564453, 50.61070251464844, -7.999472141265869, -4.385793290566653E-4, 0.3991814851760864, 4.197336196899414, 38.6397819519043, 6.615303993225098
332, 4179400632, 13.879500389099121, 87.48558044433594, 56.305809020996094, -7.056894302368164, -0.09611127525568008, 0.3791157901287079, 3.8238909244537354, 41.093509674072266, 8.824661254882812
333, 4179417299, 24.915019989013672, 88.13859558105469, 67.22960662841797, -5.908447265625, 0.12527453899383545, 0.30809661746025085, 4.6776885986328125, 44.86654281616211, 10.226568222045898
334, 4179433966, 48.774600982666016, 88.68180847167969, 90.99321746826172, -4.5540771484375, 0.044678229838609695, 0.4552779197692871, 4.937077522277832, 48.854862213134766, 11.872227668762207
335, 4179450633, 88.17726135253906, 88.76457214355469, 130.29966735839844, -3.5340545177459717, 0.2482382357120514, 0.5333095788955688, 5.407588958740234, 49.4649543762207, 14.077006340026855
336, 4179467300, 119.8402328491211, 88.25729370117188, 161.8665771484375, -2.53705096244812, 0.13714975118637085, 0.5603299140930176, 5.470300197601318, 54.0643310546875, 16.181997299194336
337, 4179483967, 133.88015747070312, 87.4778823852539, 175.82846069335938, -1.9204261302947998, 0.23057305812835693, 0.49795594811439514, 4.727279186248779, 52.51900100708008, 17.97905158996582
338, 4179500634, 140.45758056640625, 86.61736297607422, -177.6697998046875, -1.7036848068237305, 0.3402128219604492, 0.2976669371128082, 4.563162326812744, 51.31071472167969, 19.848623275756836
339, 4179517301, 144.25242614746094, 85.61099243164062, -173.94818115234375, -2.063521385192871, 0.33821725845336914, 0.15554232895374298, 4.569463729858398, 56.847530364990234, 24.3791561126709
340, 4179533968, 147.24392700195312, 84.48239135742188, -171.0111846923828, -2.982588291168213, -0.1582675576210022, 0.3617154657840729, 3.5978055000305176, 64.3481216430664, 25.02112579345703
341, 4179550635, 150.7646026611328, 83.29823303222656, -167.4646453857422, -3.7074012756347656, -0.4327086806297302, 0.3328838646411896, -0.6756376624107361, 72.3851318359375, 16.668100357055664
342, 4179567302, 153.77383422851562, 82.06733703613281, -164.41708374023438, -4.04173469543457, -0.2611575424671173, -0.13158026337623596, -1.1352425813674927, 76.05657958984375, 13.271708488464355
343, 4179583969, 156.19403076171875, 80.7967529296875, -162.04452514648438, -4.2078142166137695, 0.04546700790524483, -0.8360584378242493, 4.122410297393799, 77.9144287109375, 12.553757667541504
344, 4179600636, 158.0705108642578, 79.4693374633789, -160.30389404296875, -4.940380096435547, 0.2665909230709076, -1.4906986951828003, 9.364128112792969, 80.1965103149414, 14.00112247467041
345, 4179617303, 160.17630004882812, 78.073486328125, -158.26986694335938, -5.969549179077148, -0.2260056734085083, -1.0581564903259277, 6.310170650482178, 86.55856323242188, 7.184278964996338
346, 4179633970, 161.94021606445312, 76.79679870605469, -156.45184326171875, -6.665179252624512, -0.5180460214614868, -0.8588190078735352, -0.9703205823898315, 79.99382019042969, 1.9797463417053223
347, 4179650637, 163.6977996826172, 75.55654907226562, -154.6065673828125, -6.9856438636779785, -0.030593039467930794, -1.658004879951477, -2.396210193634033, 78.75896453857422, -3.706533193588257
348, 4179667304, 165.4285430908203, 74.24330139160156, -152.802490234375, -7.3538899421691895, 0.14213508367538452, -1.9400097131729126, -1.0091395378112793, 83.30960083007812, -6.60837984085083
349, 4179683971, 166.4752197265625, 72.89054870605469, -151.56239318847656, -7.4265851974487305, 0.24707497656345367, -1.606083869934082, -8.918577194213867, 83.69735717773438, -1.111273169517517
350, 4179700638, 167.03134155273438, 71.65886688232422, -150.6479949951172, -7.841053485870361, 0.7477055788040161, -2.1586453914642334, -19.241416931152344, 75.63021850585938, 0.2894105017185211
351, 4179717305, 167.56460571289062, 70.4985122680664, -149.86004638671875, -9.252740859985352, 1.073545217514038, -2.7840754985809326, -13.080045700073242, 71.15460205078125, -0.04154456779360771
352, 4179733972, 167.84609985351562, 69.37022399902344, -149.318359375, -10.712172508239746, 0.6684712767601013, -2.6244957447052, -13.985466003417969, 68.39905548095703, 3.1179709434509277
353, 4179750639, 167.9527130126953, 68.30192565917969, -148.80374145507812, -10.830577850341797, 0.7860687971115112, -3.1934213638305664, -22.74509620666504, 64.91706848144531, 2.137742042541504
354, 4179767306, 168.22967529296875, 67.28955841064453, -148.1280975341797, -11.219794273376465, 1.8390727043151855, -4.219968795776367, -21.265979766845703, 62.51747512817383, -2.8555715084075928
355, 4179783973, 168.7569122314453, 66.30644989013672, -147.3640594482422, -11.790571212768555, 2.1546664237976074, -4.394983291625977, -10.843202590942383, 61.3311653137207, -6.353030204772949
356, 4179800640, 169.2955780029297, 65.35034942626953, -146.7171173095703, -11.175081253051758, 1.8519484996795654, -4.8164591789245605, -3.4245240688323975, 59.28184127807617, -5.132157325744629
357, 4179817307, 169.74264526367188, 64.35125732421875, -146.14608764648438, -11.05379581451416, 1.1704655885696411, -5.4571638107299805, -4.515182018280029, 61.532047271728516, -3.8849992752075195
358, 4179833974, 170.18563842773438, 63.296661376953125, -145.5491485595703, -11.381988525390625, 0.9805623888969421, -6.110603332519531, -5.887110233306885, 64.98787689208984, -5.009311199188232
359, 4179850641, 170.55581665039062, 62.21413040161133, -144.97299194335938, -11.41476058959961, 0.7130157947540283, -5.764307975769043, -8.848843574523926, 66.5958251953125, -5.216442108154297
360, 4179867308, 170.9532470703125, 61.19386291503906, -144.4334716796875, -11.241222381591797, 0.8526261448860168, -6.268519878387451, -4.986120700836182, 62.796287536621094, -5.781956195831299
361, 4179883975, 171.38037109375, 60.217620849609375, -143.96241760253906, -11.376158714294434, 0.9529722929000854, -6.817692279815674, 0.6481760740280151, 59.90726852416992, -5.138965606689453
362, 4179900642, 171.7004852294922, 59.39652633666992, -143.576171875, -12.172520637512207, 0.44156086444854736, -7.133061408996582, -1.158492088317871, 50.333404541015625, -4.75112771987915
363, 4179917309, 171.9350128173828, 58.6699333190918, -143.13514709472656, -12.889627456665039, 0.29965314269065857, -7.802172660827637, -8.958710670471191, 44.97314453125, -7.729574203491211
364, 4179933976, 172.02133178710938, 58.0002326965332, -142.62149047851562, -13.592307090759277, 0.5620324015617371, -8.420957565307617, -21.40219497680664, 41.92575454711914, -10.853504180908203
365, 4179950643, 172.04502868652344, 57.46432113647461, -142.09486389160156, -13.98389720916748, 1.3339829444885254, -8.946625709533691, -25.656234741210938, 34.05530548095703, -12.678611755371094
366, 4179967310, 171.99278259277344, 57.08698272705078, -141.61477661132812, -14.495697975158691, 1.6387698650360107, -9.422088623046875, -27.726634979248047, 24.45238494873047, -12.707731246948242
367, 4179983977, 171.5885009765625, 56.88279342651367, -141.47532653808594, -15.936352729797363, 2.4283580780029297, -10.298046112060547, -31.627296447753906, 12.638778686523438, -3.201004981994629
368, 4180000644, 171.3317108154297, 56.7860107421875, -141.28475952148438, -17.950637817382812, 2.6310641765594482, -11.305473327636719, -25.320484161376953, 6.532772541046143, -5.78151798248291
369, 4180017311, 171.4204559326172, 56.765159606933594, -140.88174438476562, -18.46539306640625, 2.616145372390747, -12.305021286010742, -15.23530101776123, 3.0881340503692627, -13.388251304626465
370, 4180033978, 171.56324768066406, 56.83745193481445, -140.40045166015625, -18.01479721069336, 2.824568033218384, -13.205690383911133, -15.917795181274414, -2.0943288803100586, -16.770740509033203
371, 4180050645, 171.50711059570312, 57.03231430053711, -140.0165557861328, -18.774629592895508, 2.3327012062072754, -12.637068748474121, -22.98299217224121, -9.890666007995605, -14.666217803955078
372, 4180067312, 171.4411163330078, 57.26277542114258, -139.6649932861328, -20.102502822875977, 3.035337448120117, -11.969477653503418, -21.9893741607666, -12.167157173156738, -13.892241477966309
373, 4180083979, 171.61636352539062, 57.562828063964844, -139.27906799316406, -19.374032974243164, 2.575333833694458, -11.910483360290527, -9.288630485534668, -16.141643524169922, -15.534147262573242
374, 4180100646, 171.7772216796875, 57.93144607543945, -139.16757202148438, -18.07553482055664, 1.9360734224319458, -12.009574890136719, 3.7086100578308105, -21.534435272216797, -7.290048122406006
375, 4180117313, 171.9088592529297, 58.34185028076172, -139.2705841064453, -17.009021759033203, 1.4186346530914307, -11.613692283630371, 12.861632347106934, -25.020353317260742, -0.8336636424064636
376, 4180133980, 171.9808807373047, 58.74884033203125, -139.413330078125, -15.947983741760254, 0.7816845178604126, -10.707568168640137, 11.339826583862305, -25.009071350097656, 0.43629422783851624
377, 4180150647, 171.97817993164062, 59.192474365234375, -139.5507354736328, -15.664793968200684, 0.8020389080047607, -9.367255210876465, 6.604180812835693, -27.177934646606445, -0.06061260774731636
378, 4180167314, 171.99269104003906, 59.67151641845703, -139.6197509765625, -15.688213348388672, 1.0844590663909912, -8.220988273620605, 4.134081840515137, -28.982555389404297, -2.4662222862243652
379, 4180183981, 171.9810028076172, 60.200828552246094, -139.66061401367188, -15.190650939941406, 1.09498131275177, -7.64988899230957, 1.115853190422058, -31.828733444213867, -3.750711441040039
380, 4180200648, 172.01394653320312, 60.84355926513672, -139.62782287597656, -14.539715766906738, 1.2046122550964355, -7.621504306793213, -0.04095492511987686, -38.24151611328125, -6.86485481262207
381, 4180217315, 172.00823974609375, 61.630210876464844, -139.68687438964844, -13.88697624206543, 0.6479953527450562, -7.052626609802246, 2.45751953125, -47.157386779785156, -5.410456657409668
382, 4180233982, 171.92152404785156, 62.61246109008789, -139.71839904785156, -13.81252384185791, 0.9082309007644653, -6.955908298492432, -3.8382389545440674, -58.648109436035156, -7.892165184020996
383, 4180250649, 171.8315887451172, 63.7368049621582, -139.62091064453125, -13.899595260620117, 1.0567563772201538, -6.926856517791748, -10.924823760986328, -66.57648468017578, -12.673726081848145
384, 4180267316, 171.6689453125, 64.99324035644531, -139.40548706054688, -14.15590763092041, 1.0024070739746094, -6.103546142578125, -21.720678329467773, -73.96775817871094, -16.880449295043945
385, 4180283983, 171.24574279785156, 66.37738800048828, -139.14761352539062, -15.268948554992676, 1.7993865013122559, -4.898519039154053, -39.80025100708008, -81.33206176757812, -19.165184020996094
386, 4180300650, 170.23304748535156, 68.01485443115234, -139.28854370117188, -15.317625045776367, 2.1383681297302246, -3.567302703857422, -53.26239776611328, -97.60758972167969, -13.119139671325684
387, 4180317317, 168.51548767089844, 69.84529113769531, -140.0910186767578, -15.665149688720703, 3.541405439376831, -4.371687889099121, -58.41073989868164, -111.19091033935547, -3.803607225418091
388, 4180333984, 166.4730224609375, 72.00196075439453, -141.3213348388672, -17.685808181762695, 4.067757606506348, -5.998258113861084, -53.04364013671875, -131.5728302001953, -5.076938629150391
389, 4180350651, 164.11207580566406, 74.4329833984375, -143.1481170654297, -17.569520950317383, 2.836660385131836, -7.3529276847839355, -36.96378707885742, -149.12806701660156, -7.083654880523682
390, 4180367318, 162.07400512695312, 76.98753356933594, -145.26881408691406, -13.920522689819336, 1.7344903945922852, -8.776001930236816, 0.7701058983802795, -155.8375701904297, -15.212211608886719
391, 4180383985, 158.13340759277344, 79.49674224853516, -149.57643127441406, -12.865131378173828, 4.172563076019287, -9.533682823181152, 16.36370277404785, -159.59007263183594, -2.3895742893218994
392, 4180400652, 148.9330596923828, 81.48023223876953, -159.12841796875, -13.60230541229248, 2.979809284210205, -9.705495834350586, 13.030803680419922, -148.6768341064453, 31.068540573120117
393, 4180417319, 136.14230346679688, 82.43428802490234, -172.18199157714844, -11.802971839904785, 1.275507926940918, -9.255705833435059, 7.838312149047852, -112.14865112304688, 51.418582916259766
394, 4180433986, 124.34012603759766, 82.28433990478516, 175.34002685546875, -5.01645040512085, -0.7700366973876953, -2.8341434001922607, 33.59946823120117, -70.70460510253906, 70.23222351074219
395, 4180450653, 114.12773895263672, 81.99825286865234, 164.35232543945312, 0.21165905892848969, -6.011272430419922, 3.7761495113372803, 40.0062370300293, -70.8617172241211, 58.142005920410156
396, 4180467320, 102.5471420288086, 81.85099792480469, 152.0229949951172, 1.8215389251708984, -4.9523186683654785, 5.418890953063965, 37.27392578125, -96.26930236816406, 40.3523063659668
397, 4180483987, 89.16854858398438, 80.95973205566406, 137.86509704589844, 4.751620292663574, -3.249398946762085, 0.48498639464378357, 36.99052810668945, -121.00959014892578, 65.20355987548828
398, 4180500654, 78.32376098632812, 79.35508728027344, 126.44990539550781, 3.706270456314087, -2.1276979446411133, -1.9012185335159302, 23.929523468017578, -127.06906127929688, 82.0332260131836
399, 4180517321, 72.14390563964844, 78.24581909179688, 120.08454895019531, -0.24214982986450195, -0.6843461394309998, -2.3156166076660156, 3.5453128814697266, -89.0831527709961, 44.91300582885742
400, 4180533988, 71.82379150390625, 78.05230712890625, 119.72634887695312, 2.2214455604553223, 1.4027378559112549, -2.222111463546753, 1.4816890954971313, -8.262392044067383, 9.233197212219238
401, 4180550655, 73.40425109863281, 78.39649200439453, 121.33209991455078, 4.082526683807373, 0.17055189609527588, 3.0894176959991455, 0.15461787581443787, 24.442270278930664, -14.30752182006836
402, 4180567322, 74.94911193847656, 78.8370132446289, 122.71870422363281, 2.9459824562072754, 0.05765168368816376, 2.573148250579834, 10.789871215820312, 22.580326080322266, -21.440793991088867
403, 4180583989, 76.34970092773438, 79.10731506347656, 123.60503387451172, -0.6895753741264343, 0.5789444446563721, 2.007882595062256, 31.497770309448242, 13.50439167022705, -13.694419860839844
404, 4180600656, 75.74434661865234, 79.08544921875, 122.59016418457031, -1.0923949480056763, -0.37569937109947205, 2.2566847801208496, 23.141136169433594, -11.82993221282959, -2.014904737472534
405, 4180617323, 75.36036682128906, 78.98098754882812, 122.07775115966797, -1.107798457145691, -0.43057864904403687, 1.733798861503601, 6.823437213897705, -7.528497695922852, 4.108695030212402
406, 4180633990, 76.65507507324219, 79.0364761352539, 123.3731918334961, -0.29288527369499207, -0.7747807502746582, 1.70879065990448, 1.062178611755371, 14.909117698669434, -0.14802870154380798
407, 4180650657, 79.86722564697266, 79.2431640625, 126.60403442382812, 1.0619295835494995, 0.021669616922736168, 1.3957396745681763, 2.033358097076416, 38.023292541503906, -5.193539619445801
408, 4180667324, 85.13058471679688, 79.44659423828125, 131.89447021484375, 2.3851418495178223, 1.0742161273956299, 0.12892954051494598, 3.5296475887298584, 59.52312469482422, -4.925153732299805
409, 4180683991, 92.01091766357422, 79.4959945678711, 138.8053741455078, 1.8064638376235962, 1.1389135122299194, 0.606762170791626, 4.81385612487793, 75.53768157958984, -1.5808219909667969
410, 4180700658, 100.14417266845703, 79.3462905883789, 146.907470703125, 0.8388870358467102, 0.9462437033653259, 0.5759369134902954, 9.790803909301758, 89.39002227783203, -1.0602295398712158
411, 4180717325, 108.82449340820312, 78.9763412475586, 155.47645568847656, -1.2906274795532227, 0.19685667753219604, 0.230814591050148, 15.499403953552246, 98.83186340332031, -3.2687830924987793
412, 4180733992, 117.00375366210938, 78.41270446777344, 163.54470825195312, -3.372861385345459, -0.05908438190817833, 0.20060749351978302, 15.70254898071289, 100.2495346069336, -6.386618614196777
413, 4180750659, 123.3013916015625, 77.77269744873047, 169.90274047851562, -2.980287790298462, -0.570932924747467, 0.938684344291687, 4.25280237197876, 87.06232452392578, -6.892115592956543
414, 4180767326, 127.83821868896484, 77.08321380615234, 174.61338806152344, -2.027416467666626, -0.3670116662979126, 0.9854526519775391, -3.980520725250244, 73.8541488647461, -2.678025960922241
415, 4180783993, 130.208251953125, 76.43846130371094, 177.22061157226562, -1.7532585859298706, 0.26648998260498047, 0.7302188277244568, -10.38800048828125, 51.97383499145508, 6.977886199951172
416, 4180800660, 131.41824340820312, 75.98348999023438, 178.57371520996094, -1.1525812149047852, 0.3864010274410248, 0.2313576340675354, -6.557453632354736, 32.28402328491211, 7.499268531799316
417, 4180817327, 131.68539428710938, 75.6153793334961, 178.8943634033203, -0.38134893774986267, -0.1550491750240326, 0.5258766412734985, -2.934631586074829, 17.976707458496094, 12.881936073303223
418, 4180833994, 131.9325408935547, 75.25104522705078, 179.0461883544922, 0.5216977000236511, -0.18268361687660217, -0.009342119097709656, 5.703733921051025, 16.08077621459961, 14.254049301147461
419, 4180850661, 132.4788360595703, 74.85237121582031, 179.32693481445312, 1.4444116353988647, -0.5012688040733337, -0.7431266903877258, 16.18869972229004, 19.07930564880371, 14.284774780273438
420, 4180867328, 133.28018188476562, 74.50098419189453, 179.60494995117188, 1.8602283000946045, -0.9645271897315979, -0.7431813478469849, 31.678476333618164, 17.357141494750977, 11.935379028320312
421, 4180883995, 134.1165313720703, 74.28231811523438, 179.87252807617188, 1.6387856006622314, -0.6586345434188843, -0.8214408755302429, 34.40196990966797, 11.9567232131958, 5.9921770095825195
422, 4180900662, 134.5147247314453, 74.13077545166016, 179.79153442382812, 0.3478682339191437, -0.9054522514343262, 0.06639458984136581, 28.25113296508789, 5.165796756744385, 6.9215779304504395
423, 4180917329, 134.08218383789062, 74.02064514160156, 178.80662536621094, 0.27564147114753723, -1.656464695930481, 0.457457572221756, 30.555585861206055, -7.229894638061523, 15.549120903015137
424, 4180933996, 133.1350860595703, 74.0120849609375, 177.13375854492188, 0.6879293322563171, -1.8981746435165405, 1.0258548259735107, 39.34850311279297, -19.895055770874023, 18.941814422607422
425, 4180950663, 133.2523956298828, 74.07315063476562, 176.32669067382812, 2.8775229454040527, -0.4859136641025543, -0.19113120436668396, 53.27344512939453, -12.44967269897461, 5.953332901000977
426, 4180967330, 135.59136962890625, 73.88304901123047, 177.41407775878906, 5.281604766845703, 0.9848145246505737, -1.505560040473938, 77.30785369873047, 20.60247039794922, -4.947397232055664
427, 4180983997, 138.62879943847656, 73.1727066040039, 179.2780303955078, 1.2706990242004395, 1.0878593921661377, -1.638128638267517, 74.67005920410156, 52.546363830566406, 5.265901565551758
428, 4181000664, 142.7086944580078, 71.86316680908203, -177.68869018554688, -11.580575942993164, 2.141167163848877, -1.9400486946105957, 70.86055755615234, 95.13592529296875, 6.984488487243652
429, 4181017331, 147.2440185546875, 70.00718688964844, -172.9590606689453, -19.86696434020996, 0.28093981742858887, -3.654660940170288, 3.5331928730010986, 144.03857421875, -12.546652793884277
430, 4181033998, 149.29620361328125, 68.48748016357422, -170.08197021484375, -23.085866928100586, 1.8421962261199951, -5.199097156524658, -38.63236618041992, 109.44425964355469, -4.574926853179932
431, 4181050665, 151.5822296142578, 67.82220458984375, -167.32688903808594, -19.67608070373535, 9.519050598144531, -5.896265506744385, -16.605348587036133, 64.81363677978516, -34.29167938232422
432, 4181067332, 154.22825622558594, 67.192626953125, -165.20681762695312, -14.566606521606445, 9.363701820373535, -6.781370162963867, 40.90974807739258, 55.54922866821289, -26.632368087768555
433, 4181083999, 156.19903564453125, 66.42737579345703, -163.88197326660156, -15.11838436126709, 4.321531772613525, -6.951152801513672, 44.86648178100586, 54.558448791503906, -9.716460227966309
434, 4181100666, 157.82867431640625, 65.75760650634766, -162.60037231445312, -14.38680362701416, 2.569375991821289, -8.716910362243652, 27.168664932250977, 48.91056823730469, -13.549128532409668
435, 4181117333, 159.49560546875, 64.95510864257812, -161.25987243652344, -16.63409996032715, 2.857325315475464, -11.304932594299316, 26.597217559814453, 56.78303909301758, -14.269143104553223
436, 4181134000, 160.96084594726562, 63.89464569091797, -160.17776489257812, -21.923635482788086, 1.2972300052642822, -11.03392219543457, 29.03308868408203, 69.07001495361328, -5.400788307189941
437, 4181150667, 162.8358612060547, 62.81674575805664, -158.58370971679688, -22.08601951599121, 0.3924158811569214, -10.209282875061035, 26.690811157226562, 74.50434112548828, -21.21112060546875
438, 4181167334, 164.01962280273438, 62.285240173339844, -157.1220703125, -17.410602569580078, -0.24719184637069702, -9.887951850891113, -7.122901916503906, 41.80678939819336, -30.17186164855957
439, 4181184001, 164.19822692871094, 62.07396697998047, -156.39584350585938, -17.01512336730957, 2.3839406967163086, -10.786048889160156, -28.14817237854004, 17.469852447509766, -16.597267150878906
440, 4181200668, 164.26939392089844, 62.058834075927734, -155.83908081054688, -18.47461700439453, 3.5851166248321533, -10.69465160369873, -25.570941925048828, 4.830090522766113, -15.323922157287598
441, 4181217335, 164.2840118408203, 62.1541748046875, -155.27987670898438, -20.336105346679688, 3.7800750732421875, -9.919404029846191, -29.103633880615234, -1.550880789756775, -17.173856735229492
442, 4181234002, 164.29151916503906, 62.38566970825195, -154.6762237548828, -21.14075469970703, 3.801870584487915, -9.576144218444824, -31.93083381652832, -9.101335525512695, -20.503862380981445
443, 4181250669, 164.45741271972656, 62.77430725097656, -154.02000427246094, -20.053945541381836, 3.723801374435425, -10.838857650756836, -25.317428588867188, -17.861263275146484, -24.265033721923828
444, 4181267336, 164.66200256347656, 63.244937896728516, -153.4838409423828, -18.206323623657227, 3.2217018604278564, -10.775933265686035, -16.710914611816406, -23.620407104492188, -22.11725425720215
445, 4181284003, 164.7727813720703, 63.69721984863281, -153.09510803222656, -16.626298904418945, 3.4829630851745605, -10.421906471252441, -14.540462493896484, -23.725749969482422, -17.7297420501709
446, 4181300670, 164.66319274902344, 64.0398178100586, -153.04159545898438, -17.063879013061523, 3.622938632965088, -9.526369094848633, -9.775277137756348, -19.75774574279785, -7.315864562988281
447, 4181317337, 164.3889617919922, 64.2735595703125, -153.23086547851562, -18.28550910949707, 2.875699996948242, -7.711326599121094, -6.549808025360107, -15.143031120300293, 0.49003544449806213
448, 4181334004, 164.02462768554688, 64.46542358398438, -153.50762939453125, -17.88014793395996, 2.196516513824463, -7.155644416809082, -7.207092761993408, -13.331900596618652, 3.237870216369629
449, 4181350671, 163.5713653564453, 64.73925018310547, -153.88238525390625, -16.475069046020508, 2.2962095737457275, -7.491575717926025, -7.199830532073975, -18.761831283569336, 4.13814115524292
450, 4181367338, 162.9024658203125, 65.12648010253906, -154.51419067382812, -14.923299789428711, 2.493716239929199, -7.142542362213135, -6.111163139343262, -27.16950225830078, 8.139867782592773
451, 4181384005, 162.28082275390625, 65.61797332763672, -155.2281951904297, -13.92685604095459, 2.795775890350342, -7.387478828430176, 1.3267816305160522, -33.771297454833984, 7.671252727508545
452, 4181400672, 161.80084228515625, 66.18653106689453, -155.94183349609375, -13.928467750549316, 1.8625303506851196, -6.4191484451293945, 9.97301197052002, -38.13611602783203, 5.570472717285156
453, 4181417339, 161.3502655029297, 66.76560974121094, -156.5878143310547, -13.816391944885254, 1.4516596794128418, -5.840674877166748, 8.18487548828125, -38.14805603027344, 3.154143810272217
454, 4181434006, 160.8821563720703, 67.3555908203125, -157.13441467285156, -13.303998947143555, 1.3113600015640259, -5.898636341094971, 1.7998906373977661, -37.92274856567383, 0.10090175271034241
455, 4181450673, 160.34010314941406, 67.97908782958984, -157.60971069335938, -12.525818824768066, 1.535317301750183, -5.894171237945557, -6.461332321166992, -39.179725646972656, -2.73207688331604
456, 4181467340, 159.76341247558594, 68.65119171142578, -158.07052612304688, -11.947195053100586, 1.5691239833831787, -5.76362419128418, -9.228482246398926, -41.690006256103516, -4.689792156219482
457, 4181484007, 159.11106872558594, 69.3875961303711, -158.61843872070312, -11.611605644226074, 1.334878921508789, -4.803420066833496, -8.765528678894043, -45.80330276489258, -5.0309624671936035
458, 4181500674, 158.380615234375, 70.20510864257812, -159.2554931640625, -10.905028343200684, 1.5098875761032104, -4.126474380493164, -8.276501655578613, -50.80192565917969, -6.011447429656982
459, 4181517341, 157.609619140625, 71.0807876586914, -159.97372436523438, -10.012982368469238, 1.5329289436340332, -3.869055986404419, -5.919029712677002, -54.36339569091797, -6.974155902862549
460, 4181534008, 156.70082092285156, 72.019775390625, -160.83628845214844, -9.22012996673584, 1.359983205795288, -3.415740489959717, -5.756525993347168, -58.57495880126953, -7.3112993240356445
461, 4181550675, 155.57614135742188, 72.9673843383789, -161.92442321777344, -8.301486015319824, 1.4712271690368652, -3.2286810874938965, -5.517623424530029, -60.242835998535156, -5.564661502838135
462, 4181567342, 154.20233154296875, 73.93065643310547, -163.3275909423828, -7.1916184425354, 1.5147101879119873, -2.8783416748046875, -2.042679786682129, -62.81500244140625, -3.34415602684021
463, 4181584009, 152.62913513183594, 74.89420318603516, -165.0448455810547, -5.814165115356445, 1.2146965265274048, -2.4532523155212402, 4.422783374786377, -64.37071228027344, -1.678194522857666
464, 4181600676, 150.96832275390625, 75.83753204345703, -166.98817443847656, -4.901390552520752, 0.8048582077026367, -1.8908106088638306, 12.975852012634277, -64.12449645996094, -1.2855461835861206
465, 4181617343, 149.34878540039062, 76.71442413330078, -168.98573303222656, -4.362719535827637, 0.2365063726902008, -1.2584092617034912, 18.988811492919922, -60.09508514404297, -2.0365071296691895
466, 4181634010, 147.7652130126953, 77.51842498779297, -170.99229431152344, -3.865670680999756, -0.27186423540115356, -0.8198949694633484, 21.910816192626953, -55.447513580322266, -2.824014663696289
467, 4181650677, 145.97964477539062, 78.2982406616211, -173.18801879882812, -3.5368967056274414, -0.6650545597076416, -0.25906360149383545, 21.107458114624023, -54.52976989746094, -3.0457072257995605
468, 4181667344, 143.74478149414062, 79.11078643798828, -175.84945678710938, -2.8480074405670166, -0.39594727754592896, -0.22137585282325745, 22.196121215820312, -58.16230010986328, -2.9974822998046875
469, 4181684011, 140.41712951660156, 79.98851776123047, -179.63307189941406, -2.138491153717041, -0.7339541912078857, 0.8995449542999268, 23.389606475830078, -67.14207458496094, -0.3702766001224518
470, 4181700678, 136.1121826171875, 80.93880462646484, 175.54779052734375, -0.8476184010505676, -0.5779064297676086, 1.3838582038879395, 26.530881881713867, -74.68627166748047, -2.706899404525757
471, 4181717345, 130.86155700683594, 81.9356460571289, 169.66659545898438, 0.2886718809604645, -0.3265248239040375, 1.236704707145691, 33.62363052368164, -79.4984130859375, -7.703542709350586
472, 4181734012, 124.0675048828125, 82.88368225097656, 162.210693359375, 0.5675534605979919, -0.5035028457641602, 1.1402455568313599, 35.48313522338867, -81.68334197998047, -9.654454231262207
473, 4181750679, 114.83534240722656, 83.59797668457031, 152.39749145507812, 0.07641951739788055, -1.0079745054244995, 0.391537606716156, 30.481178283691406, -81.54485321044922, -3.660754680633545
474, 4181767346, 102.71401977539062, 83.98621368408203, 139.87838745117188, -0.8532655835151672, -0.7694765329360962, -0.7736569046974182, 19.022777557373047, -84.46625518798828, 3.6434192657470703
475, 4181784013, 89.55430603027344, 84.0617904663086, 126.43057250976562, -2.831540584564209, 0.19739575684070587, -1.5296379327774048, 12.450451850891113, -84.07617950439453, 3.9605090618133545
476, 4181800680, 78.40885925292969, 83.96550750732422, 115.00367736816406, -5.819733619689941, 0.48797228932380676, -0.7225340604782104, 12.666788101196289, -71.85955810546875, -2.2857589721679688
477, 4181817347, 70.89342498779297, 83.88480377197266, 107.31289672851562, -8.57249927520752, -0.440662682056427, 0.7020740509033203, 7.4062910079956055, -48.59882354736328, -8.772939682006836
478, 4181834014, 66.22583770751953, 83.90220642089844, 102.79150390625, -10.977465629577637, -0.7360807657241821, 1.2385673522949219, -10.845067977905273, -26.734346389770508, -12.023141860961914
479, 4181850681, 61.96147537231445, 83.94754791259766, 99.22601318359375, -13.926377296447754, -0.14180323481559753, 1.0202014446258545, -43.67265701293945, -19.43354606628418, -12.82848834991455
480, 4181867348, 57.724700927734375, 83.8640365600586, 95.80587768554688, -14.641786575317383, 0.33143150806427, 0.33525675535202026, -50.69640350341797, -21.609373092651367, -7.101211071014404
481, 4181884015, 53.80580520629883, 83.61211395263672, 92.4744873046875, -13.28943920135498, 0.5193067789077759, 0.7413895726203918, -36.987648010253906, -26.780235290527344, -0.2627498209476471
482, 4181900682, 49.95378875732422, 83.2751235961914, 88.96537017822266, -12.611507415771484, 1.1178938150405884, 1.2323131561279297, -22.523853302001953, -31.641902923583984, 0.5815330147743225
483, 4181917349, 46.24579620361328, 82.85369873046875, 85.52682495117188, -11.594194412231445, 0.9822964668273926, 1.447952389717102, -18.24788475036621, -35.669551849365234, 1.6919525861740112
484, 4181934016, 42.79764175415039, 82.35966491699219, 82.27851104736328, -10.495430946350098, 0.8874193429946899, 1.4834345579147339, -14.190058708190918, -38.95795822143555, 2.418794870376587
485, 4181950683, 39.94220733642578, 81.82086944580078, 79.5899887084961, -9.368958473205566, 0.5655351877212524, 1.5282241106033325, -12.102328300476074, -39.175086975097656, 4.226907730102539
486, 4181967350, 37.861000061035156, 81.31710815429688, 77.678466796875, -8.581966400146484, 0.40771493315696716, 1.6536163091659546, -11.97202205657959, -34.32529067993164, 5.418731689453125
487, 4181984017, 36.44417953491211, 80.88201904296875, 76.46832275390625, -7.388632774353027, 0.37322840094566345, 1.2873178720474243, -13.80716323852539, -27.832944869995117, 6.337136268615723
488, 4182000684, 35.358863830566406, 80.50460815429688, 75.58943939208984, -6.819919109344482, 0.32929328083992004, 1.16486394405365, -13.627685546875, -23.58950424194336, 5.906042575836182
489, 4182017351, 34.5359001159668, 80.16255187988281, 74.96605682373047, -7.15911340713501, 0.12653295695781708, 1.162575125694275, -13.027260780334473, -20.667675018310547, 6.1433796882629395
490, 4182034018, 33.80791091918945, 79.8609619140625, 74.4234619140625, -7.978007793426514, -0.12210073322057724, 1.4529168605804443, -12.126480102539062, -18.38582420349121, 5.0241379737854
491, 4182050685, 33.10960006713867, 79.62305450439453, 73.9201889038086, -8.89411735534668, -0.3825303316116333, 1.4024124145507812, -12.681120872497559, -15.119964599609375, 2.9213945865631104
492, 4182067352, 32.31727981567383, 79.48213958740234, 73.33595275878906, -9.730484962463379, -0.5554978251457214, 0.9166043400764465, -13.54833984375, -10.789938926696777, -1.2403732538223267
493, 4182084019, 31.505138397216797, 79.4124526977539, 72.72608947753906, -10.449536323547363, -0.9360852837562561, 0.9715275764465332, -13.193920135498047, -7.347290992736816, -3.9337680339813232
494, 4182100686, 30.745277404785156, 79.4190902709961, 72.19499206542969, -10.52855110168457, -0.8413839936256409, 0.9620412588119507, -14.667150497436523, -2.942248582839966, -5.671297073364258
495, 4182117353, 29.96493148803711, 79.51817321777344, 71.66693115234375, -10.423595428466797, -0.7641768455505371, 1.0892928838729858, -16.02976417541504, 1.9353299140930176, -8.45113754272461
496, 4182134020, 28.906982421875, 79.77288055419922, 70.94743347167969, -10.32740592956543, -0.7358900904655457, 1.5029728412628174, -21.4356689453125, 9.219269752502441, -14.69581127166748
497, 4182150687, 28.05840301513672, 80.05883026123047, 70.577880859375, -10.477950096130371, -0.4459768235683441, 1.7108572721481323, -29.546274185180664, 12.971097946166992, -12.02404499053955
498, 4182167354, 27.291454315185547, 80.3484878540039, 70.44146728515625, -10.760332107543945, -0.15087436139583588, 1.8103392124176025, -38.34564208984375, 14.470426559448242, -9.730210304260254
499, 4182184021, 26.4824275970459, 80.59974670410156, 70.29790496826172, -10.660796165466309, 0.2613682150840759, 1.6170436143875122, -40.49555969238281, 12.542129516601562, -8.513653755187988
500, 4182200688, 25.790874481201172, 80.79728698730469, 70.13872528076172, -10.03277587890625, 0.5933660268783569, 1.258966088294983, -32.49639892578125, 9.686845779418945, -7.024580478668213
501, 4182217355, 25.3679256439209, 80.94515991210938, 70.05571746826172, -9.453356742858887, 0.7799921631813049, 1.0910087823867798, -20.8015079498291, 7.384801387786865, -4.973354816436768
502, 4182234022, 25.072511672973633, 81.0561752319336, 69.9345474243164, -9.201521873474121, 0.7017500400543213, 1.3372160196304321, -10.884570121765137, 5.261676788330078, -4.297826290130615
503, 4182250689, 24.83012580871582, 81.16046905517578, 69.86198425292969, -8.98619270324707, 0.3608258068561554, 1.7309576272964478, -10.584184646606445, 5.112597942352295, -3.6837732791900635
504, 4182267356, 24.48642349243164, 81.23966979980469, 69.70612335205078, -9.02302360534668, 0.4619635045528412, 2.203608512878418, -11.753212928771973, 3.4442503452301025, -3.7113454341888428
505, 4182284023, 24.250078201293945, 81.29198455810547, 69.6518783569336, -9.26672649383545, 0.6830954551696777, 2.187061071395874, -11.213001251220703, 2.370911121368408, -2.1831250190734863
506, 4182300690, 24.234600067138672, 81.33136749267578, 69.79672241210938, -9.693815231323242, 0.501039981842041, 2.096104860305786, -9.695422172546387, 2.4188194274902344, -0.2254430651664734
507, 4182317357, 24.152542114257812, 81.3580322265625, 69.87800598144531, -10.025687217712402, 0.30761221051216125, 1.827089548110962, -9.973665237426758, 1.4819191694259644, -0.42640039324760437
508, 4182334024, 24.076011657714844, 81.37591552734375, 69.95479583740234, -9.89149284362793, 0.39153310656547546, 1.4573571681976318, -9.363557815551758, 0.9917176365852356, -0.25295108556747437
509, 4182350691, 24.11516571044922, 81.3744125366211, 70.12158203125, -9.745537757873535, 0.3689647614955902, 1.4267501831054688, -7.741401195526123, 0.25441738963127136, 0.9635307192802429
510, 4182367358, 24.094255447387695, 81.34762573242188, 70.21241760253906, -9.596611976623535, 0.4363449513912201, 1.4691729545593262, -6.930617809295654, -1.4003489017486572, 0.9679744243621826
511, 4182384025, 24.02499008178711, 81.29947662353516, 70.23921203613281, -9.624211311340332, 0.4882050156593323, 1.5081239938735962, -5.988044738769531, -2.8077921867370605, 0.9587410688400269
512, 4182400692, 23.95319175720215, 81.23307800292969, 70.25174713134766, -9.63365364074707, 0.5335617065429688, 1.728318214416504, -5.285335063934326, -3.863279342651367, 1.2829595804214478
513, 4182417359, 23.974178314208984, 81.15922546386719, 70.36082458496094, -9.69689655303955, 0.8680069446563721, 1.715609073638916, -5.427793025970459, -3.9126226902008057, 2.2732491493225098
514, 4182434026, 24.138477325439453, 81.08116912841797, 70.59307098388672, -9.73778247833252, 0.9811822772026062, 1.7392032146453857, -4.129497528076172, -3.66475510597229, 3.427152156829834
515, 4182450693, 24.44409942626953, 81.01445007324219, 70.9366226196289, -9.676567077636719, 0.9350148439407349, 1.6336593627929688, -2.2100307941436768, -2.5988059043884277, 4.121078014373779
516, 4182467360, 24.902938842773438, 80.94954681396484, 71.40044403076172, -9.589527130126953, 0.9485195279121399, 1.4893733263015747, -0.1863580197095871, -1.9808223247528076, 5.141282558441162
517, 4182484027, 25.439695358276367, 80.8687515258789, 71.91837310791016, -9.470261573791504, 1.1250420808792114, 1.4941067695617676, 1.2627127170562744, -2.56050181388855, 6.057064533233643
518, 4182500694, 25.928016662597656, 80.7511215209961, 72.39730072021484, -9.687475204467773, 1.2685829401016235, 1.8158115148544312, 0.6978886723518372, -4.636040687561035, 6.742665767669678
519, 4182517361, 26.232345581054688, 80.58485412597656, 72.74291229248047, -10.10558032989502, 1.4028306007385254, 2.2547223567962646, -2.4304282665252686, -7.7368693351745605, 6.945621967315674
520, 4182534028, 26.373519897460938, 80.39067840576172, 72.9745101928711, -10.229732513427734, 1.7860019207000732, 2.339491605758667, -5.453830718994141, -9.683975219726562, 6.758664131164551
521, 4182550695, 26.51713752746582, 80.17391204833984, 73.1482925415039, -9.990766525268555, 2.001066207885742, 2.11733341217041, -1.8841352462768555, -11.112871170043945, 6.899571895599365
522, 4182567362, 26.791500091552734, 79.89547729492188, 73.34644317626953, -9.623204231262207, 2.0098602771759033, 2.1017038822174072, 4.579779148101807, -14.26229190826416, 8.85091781616211
523, 4182584029, 27.20836067199707, 79.562744140625, 73.6205825805664, -9.412109375, 1.9482135772705078, 1.9669007062911987, 8.644281387329102, -16.709280014038086, 11.189406394958496
524, 4182600696, 27.569263458251953, 79.19609832763672, 73.79995727539062, -9.316933631896973, 1.5077128410339355, 1.7410448789596558, 10.90539264678955, -18.872554779052734, 11.38409423828125
525, 4182617363, 27.76946449279785, 78.80015563964844, 73.7671127319336, -9.232359886169434, 1.7337939739227295, 1.6299875974655151, 13.786784172058105, -21.465726852416992, 10.194221496582031
526, 4182634030, 28.06987953186035, 78.40300750732422, 73.77063751220703, -9.302580833435059, 1.5939879417419434, 1.7942794561386108, 17.619728088378906, -21.282400131225586, 10.687910079956055
527, 4182650697, 28.379215240478516, 77.99188232421875, 73.76543426513672, -9.255960464477539, 1.5493321418762207, 2.2802820205688477, 18.642513275146484, -22.00706672668457, 11.101008415222168
528, 4182667364, 28.56446075439453, 77.5683822631836, 73.63742065429688, -9.35234546661377, 1.7691525220870972, 2.2375402450561523, 18.41994285583496, -23.355560302734375, 10.168066024780273
529, 4182684031, 28.69887351989746, 77.16658782958984, 73.442626953125, -9.261249542236328, 1.6205732822418213, 2.1775991916656494, 19.31601905822754, -22.631986618041992, 8.77973747253418
530, 4182700698, 28.797880172729492, 76.7941665649414, 73.19513702392578, -9.17126750946045, 1.5068145990371704, 2.3561999797821045, 20.27960777282715, -21.44902992248535, 7.2763800621032715
531, 4182717365, 28.862415313720703, 76.44564056396484, 72.90497589111328, -9.114500999450684, 1.6643534898757935, 2.3542706966400146, 20.670427322387695, -20.51031494140625, 6.016973495483398
532, 4182734032, 28.91107749938965, 76.1142807006836, 72.57333374023438, -9.088683128356934, 1.7404354810714722, 2.472926139831543, 22.1636962890625, -19.93866729736328, 4.919529914855957
533, 4182750699, 28.911968231201172, 75.79460144042969, 72.17996215820312, -9.08891487121582, 1.8046401739120483, 2.590386152267456, 22.8521785736084, -19.8040714263916, 3.700950860977173
534, 4182767366, 28.85271644592285, 75.4786148071289, 71.7241439819336, -9.050789833068848, 1.967644453048706, 2.6530468463897705, 22.790069580078125, -20.115320205688477, 2.6636080741882324
535, 4182784033, 28.749099731445312, 75.17658996582031, 71.24179077148438, -9.184953689575195, 2.0783209800720215, 2.6038501262664795, 21.67032241821289, -19.648136138916016, 1.7382174730300903
536, 4182800700, 28.64186668395996, 74.90464782714844, 70.7592544555664, -9.41090202331543, 2.216315984725952, 2.5180139541625977, 21.39307403564453, -18.132780075073242, 0.7103510499000549
537, 4182817367, 28.56676483154297, 74.67276763916016, 70.30418395996094, -9.593015670776367, 2.071686267852783, 2.5045835971832275, 21.654600143432617, -15.867146492004395, -0.1981019377708435
538, 4182834034, 28.48102378845215, 74.47553253173828, 69.85191345214844, -9.648709297180176, 1.8415112495422363, 2.497452735900879, 20.84374237060547, -14.067793846130371, -1.26838219165802
539, 4182850701, 28.308212280273438, 74.30249786376953, 69.35845184326172, -9.515555381774902, 1.6870017051696777, 2.434821128845215, 17.98673439025879, -13.14732837677002, -2.6567203998565674
540, 4182867368, 28.066299438476562, 74.14089965820312, 68.82019805908203, -9.366488456726074, 1.5775384902954102, 2.478853940963745, 16.35441780090332, -12.912226676940918, -3.7398056983947754
541, 4182884035, 27.840309143066406, 74.0129165649414, 68.30177307128906, -9.141273498535156, 1.678565263748169, 2.3744757175445557, 16.225341796875, -11.012555122375488, -4.536220550537109
542, 4182900702, 27.6805477142334, 73.92411804199219, 67.84366607666016, -9.216351509094238, 1.5493890047073364, 2.344738245010376, 16.701967239379883, -8.481643676757812, -4.835760593414307
543, 4182917369, 27.582578659057617, 73.87555694580078, 67.44962310791016, -9.235016822814941, 1.3515712022781372, 2.3521127700805664, 16.6335391998291, -5.8398942947387695, -5.046270370483398
544, 4182934036, 27.601917266845703, 73.87155151367188, 67.1796646118164, -9.156645774841309, 1.251966118812561, 2.297400712966919, 16.497276306152344, -2.512608051300049, -4.463183879852295
545, 4182950703, 27.676284790039062, 73.9145278930664, 66.97152709960938, -9.170058250427246, 1.2124836444854736, 2.380937099456787, 16.26832389831543, 0.45508044958114624, -4.858349323272705
546, 4182967370, 27.625972747802734, 73.99402618408203, 66.68384552001953, -9.360701560974121, 1.1435344219207764, 2.715381622314453, 13.354387283325195, 1.7941261529922485, -7.028027057647705
547, 4182984037, 27.377635955810547, 74.10074615478516, 66.28699493408203, -9.62165641784668, 1.2591420412063599, 2.731027126312256, 7.78070068359375, 2.4396812915802, -9.348679542541504
548, 4183000704, 27.087520599365234, 74.24038696289062, 65.88558197021484, -9.604188919067383, 1.1904706954956055, 2.4447507858276367, 5.603043079376221, 4.22104549407959, -10.272247314453125
549, 4183017371, 26.557754516601562, 74.36849212646484, 65.30171966552734, -9.490604400634766, 0.874006450176239, 2.3258605003356934, 1.7376883029937744, 2.36879825592041, -12.514974594116211
550, 4183034038, 25.847307205200195, 74.46992492675781, 64.66444396972656, -9.19450855255127, 0.7871062159538269, 2.5508899688720703, -6.021806240081787, 0.7168166637420654, -12.484496116638184
551, 4183050705, 25.186687469482422, 74.52978515625, 64.1513671875, -9.098493576049805, 0.8729230761528015, 2.2717158794403076, -10.147937774658203, -0.5226530432701111, -9.55735969543457
552, 4183067372, 24.565141677856445, 74.53154754638672, 63.57035446166992, -9.073580741882324, 1.1665573120117188, 2.265015125274658, -3.9163625240325928, -4.021233558654785, -9.060073852539062
553, 4183084039, 24.05718994140625, 74.49015045166016, 62.968971252441406, -9.368124961853027, 1.2226978540420532, 2.2384345531463623, 4.115981578826904, -6.4466681480407715, -8.346759796142578
554, 4183100706, 23.7009220123291, 74.40227508544922, 62.38413619995117, -9.691028594970703, 1.0058026313781738, 2.292570114135742, 12.304052352905273, -8.853204727172852, -7.069497108459473
555, 4183117373, 23.464048385620117, 74.28604888916016, 61.8154182434082, -9.802665710449219, 0.8427485823631287, 2.3769032955169678, 18.50253677368164, -10.296208381652832, -6.247101306915283
556, 4183134040, 23.30649757385254, 74.17354583740234, 61.27582550048828, -9.733659744262695, 0.6980184316635132, 2.4452037811279297, 21.590559005737305, -9.916501998901367, -5.99912166595459
557, 4183150707, 23.21248435974121, 74.0783920288086, 60.82621765136719, -9.56354808807373, 0.5568428039550781, 2.4166982173919678, 20.178186416625977, -8.38394832611084, -5.12094783782959
558, 4183167374, 23.204275131225586, 74.01297760009766, 60.51934814453125, -9.404647827148438, 0.46383312344551086, 2.4150021076202393, 17.07491111755371, -5.828521728515625, -3.6949052810668945
559, 4183184041, 23.365726470947266, 73.9841079711914, 60.416439056396484, -9.293669700622559, 0.5650756359100342, 2.3362152576446533, 15.419940948486328, -2.4813475608825684, -1.4507173299789429
560, 4183200708, 23.834714889526367, 74.00857543945312, 60.63483428955078, -9.314306259155273, 0.5557630062103271, 2.3129208087921143, 15.389001846313477, 2.5666701793670654, 2.142728328704834
561, 4183217375, 24.57952117919922, 74.11782836914062, 61.13138961791992, -9.445720672607422, 0.5816062092781067, 2.03379487991333, 15.858614921569824, 9.107534408569336, 4.2071404457092285
562, 4183234042, 25.301401138305664, 74.31597137451172, 61.63655090332031, -9.504660606384277, 0.2635781168937683, 2.142375946044922, 13.87765121459961, 14.04259967803955, 1.9139949083328247
563, 4183250709, 25.881776809692383, 74.58946228027344, 62.120460510253906, -9.307945251464844, 0.21308428049087524, 1.9611302614212036, 6.5840277671813965, 17.943288803100586, -0.6081871390342712
564, 4183267376, 26.297256469726562, 74.91502380371094, 62.60376739501953, -9.407820701599121, 0.433289498090744, 2.2327184677124023, -3.300367832183838, 20.671125411987305, -2.271632194519043
565, 4183284043, 26.63645362854004, 75.27183532714844, 63.10638427734375, -9.740994453430176, 1.116284966468811, 2.605471134185791, -9.106922149658203, 22.408912658691406, -3.112410545349121
566, 4183300710, 26.8784122467041, 75.61395263671875, 63.565818786621094, -9.719388961791992, 1.5437579154968262, 2.3733057975769043, -12.425426483154297, 21.231496810913086, -3.5817389488220215
567, 4183317377, 27.116863250732422, 75.9569320678711, 64.02310180664062, -9.531335830688477, 1.1634399890899658, 2.230692148208618, -12.593291282653809, 21.182802200317383, -3.8592400550842285
568, 4183334044, 27.262149810791016, 76.31925964355469, 64.39022827148438, -9.483919143676758, 0.7401233315467834, 2.2176380157470703, -13.03678035736084, 21.544437408447266, -5.746696472167969
569, 4183350711, 27.31205177307129, 76.69607543945312, 64.6668472290039, -9.438692092895508, 0.7816213965415955, 2.101679801940918, -13.464502334594727, 21.660953521728516, -7.440162658691406
570, 4183367378, 27.416095733642578, 77.07782745361328, 64.92669677734375, -9.49065113067627, 1.0530027151107788, 1.9847345352172852, -9.313616752624512, 21.76624870300293, -7.889560222625732
571, 4183384045, 27.509004592895508, 77.46843719482422, 65.07144927978516, -9.545676231384277, 1.2495695352554321, 1.9691225290298462, -3.2246196269989014, 21.475412368774414, -9.624105453491211
572, 4183400712, 27.447004318237305, 77.86279296875, 64.94417572021484, -9.56135368347168, 1.1761314868927002, 1.8945276737213135, 3.451772928237915, 20.02931785583496, -12.884137153625488
573, 4183417379, 27.25851821899414, 78.23906707763672, 64.64759826660156, -9.629101753234863, 0.8170356750488281, 1.7888084650039673, 5.7681121826171875, 18.150094985961914, -14.158407211303711
574, 4183434046, 26.924480438232422, 78.59722137451172, 64.19119262695312, -9.631752967834473, 0.7345393896102905, 1.5799200534820557, 6.480812072753906, 16.42255401611328, -15.199782371520996
575, 4183450713, 26.52463150024414, 78.95339965820312, 63.6225700378418, -9.56688117980957, 0.7288217544555664, 1.450721263885498, 9.202859878540039, 15.885469436645508, -16.062204360961914
576, 4183467380, 26.035478591918945, 79.29750061035156, 62.931861877441406, -9.633983612060547, 0.49038079380989075, 1.5000778436660767, 10.996278762817383, 14.844110488891602, -16.65961265563965
577, 4183484047, 25.62847328186035, 79.61949157714844, 62.33882141113281, -9.692961692810059, 0.2794286906719208, 1.4611053466796875, 10.226944923400879, 14.339469909667969, -14.785201072692871
578, 4183500714, 25.326854705810547, 79.89811706542969, 61.9291877746582, -9.744239807128906, 0.16328419744968414, 1.5683794021606445, 5.664824962615967, 13.015754699707031, -11.634069442749023
579, 4183517381, 25.02800178527832, 80.12733459472656, 61.60301971435547, -9.746094703674316, 0.012429913505911827, 1.264570951461792, 0.9498156309127808, 10.79439640045166, -9.414133071899414
580, 4183534048, 24.441118240356445, 80.2442626953125, 61.06010055541992, -9.735284805297852, -0.09875082224607468, 1.402504324913025, -3.510387897491455, 3.837967872619629, -8.462885856628418
581, 4183550715, 23.51677703857422, 80.23797607421875, 60.31601333618164, -9.824822425842285, 0.18092358112335205, 1.532270908355713, -11.85378360748291, -3.6318962574005127, -7.238627910614014
582, 4183567382, 22.460994720458984, 80.14852905273438, 59.45756149291992, -9.930559158325195, 0.43467819690704346, 1.5992379188537598, -12.910465240478516, -8.581160545349121, -6.463563442230225
583, 4183584049, 21.302112579345703, 79.98829650878906, 58.445621490478516, -9.924976348876953, 0.5679935812950134, 1.634564995765686, -9.957179069519043, -13.048674583435059, -6.624476432800293
584, 4183600716, 20.053220748901367, 79.79845428466797, 57.236541748046875, -9.642692565917969, 0.7360401749610901, 1.6356720924377441, -3.7968950271606445, -15.377228736877441, -8.368844032287598
585, 4183617383, 19.008079528808594, 79.61161041259766, 56.146644592285156, -9.347441673278809, 0.8488643169403076, 1.595205307006836, 1.3652030229568481, -14.69350814819336, -7.7530999183654785
586, 4183634050, 18.40142059326172, 79.43756103515625, 55.43699264526367, -9.299914360046387, 0.7861743569374084, 1.6279997825622559, 5.192831516265869, -12.588343620300293, -4.47340202331543
587, 4183650717, 17.953020095825195, 79.26824951171875, 54.857181549072266, -9.473563194274902, 0.8217507004737854, 1.5620014667510986, 6.997041702270508, -11.87411880493164, -3.427673101425171
588, 4183667384, 17.539392471313477, 79.1044921875, 54.302738189697266, -9.62540340423584, 0.7462379932403564, 1.708412528038025, 7.612285137176514, -11.48489761352539, -3.4469082355499268
589, 4183684051, 17.13368034362793, 78.96659851074219, 53.78504943847656, -9.65468692779541, 0.7085230946540833, 1.7642841339111328, 5.975886821746826, -9.891666412353516, -3.6835427284240723
590, 4183700718, 16.820106506347656, 78.8727035522461, 53.37583541870117, -9.628140449523926, 0.7139853835105896, 1.7968835830688477, 5.094488620758057, -6.9943437576293945, -3.378751277923584
591, 4183717385, 16.665813446044922, 78.82978057861328, 53.13833236694336, -9.554533958435059, 0.6620245575904846, 1.8131412267684937, 4.443181991577148, -3.484774589538574, -2.3934683799743652
592, 4183734052, 16.799863815307617, 78.84603118896484, 53.176944732666016, -9.392304420471191, 0.75983065366745, 1.673454761505127, 5.535359859466553, 0.8385663032531738, -0.3588723838329315
593, 4183750719, 17.271879196166992, 78.91072082519531, 53.513999938964844, -9.401952743530273, 0.8073347210884094, 1.71879243850708, 8.21763801574707, 4.628530025482178, 2.088376760482788
594, 4183767386, 17.940515518188477, 79.00010681152344, 54.00712966918945, -9.532051086425781, 0.8460273146629333, 1.690556526184082, 10.823029518127441, 6.600210666656494, 3.272094488143921
595, 4183784053, 18.433834075927734, 79.10433197021484, 54.31510543823242, -9.764664649963379, 0.5260196328163147, 1.747545838356018, 11.10175895690918, 6.8195319175720215, 0.8841572999954224
596, 4183800720, 18.57284927368164, 79.19872283935547, 54.3306770324707, -9.809993743896484, 0.3264758288860321, 1.815819263458252, 7.107891082763672, 5.205391883850098, -2.1336026191711426
597, 4183817387, 18.47559356689453, 79.29507446289062, 54.19152069091797, -9.697629928588867, 0.36015281081199646, 1.7283798456192017, 2.039750576019287, 4.764404296875, -3.8118999004364014
598, 4183834054, 18.347644805908203, 79.39767456054688, 54.060970306396484, -9.623018264770508, 0.4393269419670105, 1.7937711477279663, -0.3869439363479614, 5.166652679443359, -3.8020269870758057
599, 4183850721, 18.264745712280273, 79.49968719482422, 53.99142837524414, -9.637237548828125, 0.5060915946960449, 1.8393687009811401, -1.2424721717834473, 5.349322319030762, -3.133906364440918
600, 4183867388, 18.21730613708496, 79.59732818603516, 53.920963287353516, -9.66607666015625, 0.49716463685035706, 1.906939148902893, 1.0202628374099731, 5.105322360992432, -3.0625619888305664
601, 4183884055, 18.13623809814453, 79.68675994873047, 53.80534362792969, -9.701241493225098, 0.452617347240448, 1.5904585123062134, 1.6770493984222412, 4.487006187438965, -3.3579280376434326
602, 4183900722, 18.010154724121094, 79.7411117553711, 53.642486572265625, -9.67569351196289, 0.261026531457901, 1.7681275606155396, 1.7868763208389282, 2.337818145751953, -3.1716203689575195
603, 4183917389, 17.807758331298828, 79.79047393798828, 53.34410095214844, -9.611165046691895, 0.5417646765708923, 1.4264028072357178, 5.224793434143066, 1.6117500066757202, -4.434865951538086
604, 4183934056, 17.67021942138672, 79.83331298828125, 53.14595031738281, -9.58761215209961, 0.4169659912586212, 1.6326136589050293, 3.0839295387268066, 1.5946661233901978, -3.271754026412964
605, 4183950723, 17.56743049621582, 79.88905334472656, 53.02164077758789, -9.734915733337402, 0.5023157596588135, 1.6938858032226562, 0.8011205196380615, 2.5714833736419678, -2.7439401149749756
606, 4183967390, 17.443607330322266, 79.96488952636719, 52.89967727661133, -9.619833946228027, 0.6186510324478149, 1.4088950157165527, -0.5448973178863525, 3.7381927967071533, -3.0795044898986816
607, 4183984057, 17.284212112426758, 80.0518569946289, 52.75129318237305, -9.661376953125, 0.3667309880256653, 1.5374350547790527, -1.2011843919754028, 4.301211357116699, -3.5090041160583496
