PacketCounter,SampleTimeFine,Euler_X,Euler_Y,Euler_Z,Acc_X,Acc_Y,Acc_Z,Gyr_X,Gyr_Y,Gyr_Z
0, 270889132, -0.22972717881202698, 0.1927340030670166, 23.384424209594727, 0.0, 0.0, 0.0, 0.0, 0.0, 0.0
1, 270905799, -0.21204042434692383, 0.16651679575443268, 23.384475708007812, 0.00424495805054903, -0.02086716890335083, 9.799176216125488, -0.016232047230005264, -0.20828886330127716, -0.47449442744255066
2, 270922466, -0.1936713308095932, 0.13131606578826904, 23.4105224609375, -0.008643384091556072, -0.024557486176490784, 9.80180835723877, -0.13941632211208344, -0.14729222655296326, -0.4045845866203308
3, 270939133, -0.18084017932415009, 0.10754136741161346, 23.39921760559082, -0.029825568199157715, -0.020902931690216064, 9.798990249633789, -0.13293631374835968, -0.22117207944393158, -0.5044100880622864
4, 270955800, -0.17172960937023163, 0.10107197612524033, 23.42523956298828, -0.048224739730358124, -0.03150948882102966, 9.798783302307129, -0.16896697878837585, -0.19428513944149017, -0.44188305735588074
5, 270972467, -0.16649825870990753, 0.10720619559288025, 23.434558868408203, -0.04215284809470177, -0.05851049721240997, 9.783876419067383, -0.0745009332895279, -0.14844480156898499, -0.4381372034549713
6, 270989134, -0.16968820989131927, 0.11362022161483765, 23.431140899658203, -0.04148758202791214, -0.050485316663980484, 9.787635803222656, -0.08734571188688278, -0.3183082342147827, -0.4637371301651001
7, 271005801, -0.17536771297454834, 0.12119302153587341, 23.43462371826172, -0.034653447568416595, -0.05444060266017914, 9.79495620727539, -0.11026906967163086, -0.27139854431152344, -0.479155957698822
8, 271022468, -0.18206816911697388, 0.12747254967689514, 23.44577980041504, -0.02445768192410469, -0.04755998030304909, 9.775845527648926, -0.1098528653383255, -0.2778721749782562, -0.5038146376609802
9, 271039135, -0.18644748628139496, 0.13050886988639832, 23.45293617248535, -0.027297185733914375, -0.04090425744652748, 9.777737617492676, -0.002221901435405016, -0.34508630633354187, -0.42673957347869873
10, 271055802, -0.19146323204040527, 0.1328800469636917, 23.463031768798828, -0.025315972045063972, -0.02016623318195343, 9.810927391052246, -0.10804076492786407, -0.32016512751579285, -0.4547470510005951
11, 271072469, -0.19457882642745972, 0.13559427857398987, 23.464496612548828, -0.015231234021484852, -0.021529074758291245, 9.78898811340332, -0.13307717442512512, -0.2444411814212799, -0.45683449506759644
12, 271089136, -0.19690433144569397, 0.1361796259880066, 23.4732666015625, -0.024497197940945625, -0.03344857692718506, 9.789737701416016, -0.1671292632818222, -0.2941938638687134, -0.3873344361782074
13, 271105803, -0.19798694550991058, 0.13668997585773468, 23.474206924438477, -0.020809950307011604, -0.033416081219911575, 9.790672302246094, -0.11340662091970444, -0.2795946002006531, -0.4446812570095062
14, 271122470, -0.19867271184921265, 0.13735592365264893, 23.47733497619629, -0.020062662661075592, -0.027383336797356606, 9.800810813903809, -0.1058252677321434, -0.24295565485954285, -0.4781314432621002
15, 271139137, -0.1991332620382309, 0.1387050747871399, 23.4786319732666, -0.030548125505447388, -0.04813958331942558, 9.787717819213867, -0.1163392961025238, -0.18290668725967407, -0.505754828453064
16, 271155804, -0.19996973872184753, 0.13883942365646362, 23.48203468322754, -0.02948925457894802, -0.03831157088279724, 9.781423568725586, -0.11528915166854858, -0.2604363262653351, -0.4667337238788605
17, 271172471, -0.20026898384094238, 0.139860138297081, 23.487655639648438, -0.038615886121988297, -0.03639506176114082, 9.78781509399414, -0.08386238664388657, -0.21086296439170837, -0.4696792960166931
18, 271189138, -0.20113824307918549, 0.14029604196548462, 23.48682975769043, -0.0356905497610569, -0.039781730622053146, 9.791455268859863, -0.12343400716781616, -0.25982165336608887, -0.4749554991722107
19, 271205805, -0.20041729509830475, 0.14078949391841888, 23.48528289794922, -0.03165300935506821, -0.03674910590052605, 9.777776718139648, -0.027668118476867676, -0.26358669996261597, -0.41320326924324036
20, 271222472, -0.19989031553268433, 0.1409800797700882, 23.48560905456543, -0.018871646374464035, -0.029639605432748795, 9.809032440185547, -0.042011234909296036, -0.28060635924339294, -0.4248058497905731
21, 271239139, -0.1993197649717331, 0.14194487035274506, 23.484893798828125, -0.016940493136644363, -0.03524352237582207, 9.789749145507812, -0.04983591288328171, -0.21736857295036316, -0.46636244654655457
22, 271255806, -0.19853422045707703, 0.1424887776374817, 23.484088897705078, -0.018789393827319145, -0.026689235121011734, 9.787092208862305, -0.04078822582960129, -0.22811949253082275, -0.421226441860199
23, 271272473, -0.20123854279518127, 0.14333507418632507, 23.484336853027344, -0.026556914672255516, -0.02750103361904621, 9.789795875549316, -0.25959110260009766, -0.1990426778793335, -0.5331219434738159
24, 271289140, -0.20043101906776428, 0.14289827644824982, 23.488536834716797, -0.018467534333467484, -0.03392747789621353, 9.789763450622559, -0.05650801584124565, -0.27640584111213684, -0.4034448266029358
25, 271305807, -0.19926144182682037, 0.14224854111671448, 23.484838485717773, -0.03837985545396805, -0.036727648228406906, 9.789663314819336, -0.03528789430856705, -0.28056788444519043, -0.5110694169998169
26, 271322474, -0.1997239589691162, 0.1424761563539505, 23.48452377319336, -0.028938669711351395, -0.04096187651157379, 9.801547050476074, -0.13248808681964874, -0.23623231053352356, -0.47070378065109253
27, 271339141, -0.1990404725074768, 0.14437128603458405, 23.482877731323242, -0.01051754504442215, -0.033583976328372955, 9.795289039611816, -0.05979923903942108, -0.13686783611774445, -0.48644277453422546
28, 271355808, -0.1999989002943039, 0.14591722190380096, 23.481945037841797, -0.016532806679606438, -0.04662301391363144, 9.786885261535645, -0.15975280106067657, -0.14524321258068085, -0.535106897354126
29, 271372475, -0.20157217979431152, 0.1467488557100296, 23.472766876220703, -0.012312621809542179, -0.03950968384742737, 9.805291175842285, -0.18959158658981323, -0.18362385034561157, -0.4975843131542206
30, 271389142, -0.20336753129959106, 0.14746007323265076, 23.47538185119629, -0.026660624891519547, -0.0407043918967247, 9.801572799682617, -0.20187291502952576, -0.18224075436592102, -0.445001482963562
31, 271405809, -0.20368899405002594, 0.1481943577528, 23.48067855834961, -0.03188188746571541, -0.0359802208840847, 9.81168270111084, -0.11216439306735992, -0.18208707869052887, -0.5557891130447388
32, 271422476, -0.20363321900367737, 0.14842726290225983, 23.481643676757812, -0.05203739181160927, -0.03232891485095024, 9.797009468078613, -0.08997101336717606, -0.21615196764469147, -0.47298330068588257
33, 271439143, -0.20352689921855927, 0.1486704796552658, 23.47997283935547, -0.024221651256084442, -0.02983987331390381, 9.791637420654297, -0.09084183722734451, -0.22724226117134094, -0.3933534324169159
34, 271455810, -0.20458392798900604, 0.14985282719135284, 23.477750778198242, -0.024332312867045403, -0.029013561084866524, 9.787071228027344, -0.16401731967926025, -0.1692935675382614, -0.4448606073856354
35, 271472477, -0.20288245379924774, 0.1517631858587265, 23.481321334838867, -0.019579734653234482, -0.025401800870895386, 9.782546997070312, -6.851397338323295E-4, -0.12339556962251663, -0.38935786485671997
36, 271489144, -0.20301920175552368, 0.15325595438480377, 23.486661911010742, -0.02353859692811966, -0.03621625155210495, 9.808964729309082, -0.11548765748739243, -0.14539048075675964, -0.4676622450351715
37, 271505811, -0.20307987928390503, 0.15466168522834778, 23.488922119140625, -0.019740663468837738, -0.04544644057750702, 9.81803035736084, -0.11079412698745728, -0.14893142879009247, -0.4824599623680115
38, 271522478, -0.20348544418811798, 0.1571107804775238, 23.495298385620117, -0.025802334770560265, -0.04628685116767883, 9.782293319702148, -0.1285821497440338, -0.08404166251420975, -0.4081575572490692
39, 271539145, -0.20471568405628204, 0.15940023958683014, 23.497421264648438, -0.039660390466451645, -0.048389796167612076, 9.781316757202148, -0.17424319684505463, -0.09255149215459824, -0.5224478244781494
40, 271555812, -0.2040131688117981, 0.16106773912906647, 23.496023178100586, -0.040883202105760574, -0.039563581347465515, 9.791491508483887, -0.054625481367111206, -0.13360223174095154, -0.5299587845802307
41, 271572479, -0.20525263249874115, 0.16163568198680878, 23.495033264160156, -0.0322001688182354, -0.019704902544617653, 9.799076080322266, -0.17042049765586853, -0.20332001149654388, -0.45408111810684204
42, 271589146, -0.20497429370880127, 0.16272683441638947, 23.49601173400879, -0.036026712507009506, -0.01864992082118988, 9.798160552978516, -0.08539913594722748, -0.1725207418203354, -0.3996029198169708
43, 271605813, -0.20433279871940613, 0.16363109648227692, 23.49995994567871, -0.02108881063759327, -0.007949691265821457, 9.79833984375, -0.06901340931653976, -0.18578170239925385, -0.4300500154495239
44, 271622480, -0.2056037038564682, 0.1633969396352768, 23.499000549316406, -0.03558683767914772, -0.030086632817983627, 9.796208381652832, -0.1900654435157776, -0.2509724199771881, -0.5044741034507751
45, 271639147, -0.20686858892440796, 0.16395093500614166, 23.499900817871094, -0.01793825626373291, -0.008579321205615997, 9.7672119140625, -0.1910771131515503, -0.20461344718933105, -0.4171219766139984
46, 271655814, -0.2067967802286148, 0.1645844578742981, 23.497966766357422, -0.022555138915777206, -0.04007140174508095, 9.786981582641602, -0.11660820245742798, -0.19719856977462769, -0.4498806595802307
47, 271672481, -0.20657101273536682, 0.16581301391124725, 23.498388290405273, -0.049223050475120544, -0.03680294379591942, 9.79793930053711, -0.10584447532892227, -0.16015619039535522, -0.4455201029777527
48, 271689148, -0.20661450922489166, 0.1649773120880127, 23.49216079711914, -0.053714632987976074, -0.05299939215183258, 9.792245864868164, -0.12027084082365036, -0.2877778708934784, -0.5062670111656189
49, 271705815, -0.20843622088432312, 0.16532889008522034, 23.49034881591797, -0.04960947483778, -0.049820467829704285, 9.769408226013184, -0.22328510880470276, -0.22063419222831726, -0.530599057674408
50, 271722482, -0.2072807103395462, 0.16387830674648285, 23.489315032958984, -0.038655225187540054, -0.042606934905052185, 9.767695426940918, -0.041242849081754684, -0.33295872807502747, -0.4465254247188568
51, 271739149, -0.2061920315027237, 0.16273042559623718, 23.489620208740234, -0.01941165328025818, -0.04389436915516853, 9.808928489685059, -0.044149890542030334, -0.31536275148391724, -0.4702299237251282
52, 271755816, -0.20580357313156128, 0.16222083568572998, 23.493682861328125, -0.018624775111675262, -0.038204263895750046, 9.787936210632324, -0.08491250872612, -0.2747666537761688, -0.4733034670352936
53, 271772483, -0.20556452870368958, 0.16105426847934723, 23.496641159057617, -0.024843912571668625, -0.035644058138132095, 9.78796100616455, -0.09240420907735825, -0.3122636079788208, -0.4398532807826996
54, 271789150, -0.20421873033046722, 0.1606689840555191, 23.494197845458984, -0.018760783597826958, -0.024865368381142616, 9.809165000915527, -0.026669222861528397, -0.2634842097759247, -0.4148680567741394
55, 271805817, -0.20550304651260376, 0.16102372109889984, 23.494375228881836, -0.02255895920097828, -0.03804755210876465, 9.79801082611084, -0.1869150549173355, -0.21611355245113373, -0.4746353030204773
56, 271822484, -0.20368289947509766, 0.15959370136260986, 23.495891571044922, -0.029235495254397392, -0.031148765236139297, 9.79991340637207, 5.250603426247835E-4, -0.3232898712158203, -0.46860355138778687
57, 271839151, -0.20230606198310852, 0.16043037176132202, 23.49970245361328, -0.03164936974644661, -0.021671399474143982, 9.817421913146973, -0.02638748288154602, -0.18632598221302032, -0.4061853587627411
58, 271855818, -0.20243766903877258, 0.1607980728149414, 23.499849319458008, -0.028452305123209953, -0.0225694440305233, 9.779882431030273, -0.11941920220851898, -0.21453195810317993, -0.5411067008972168
59, 271872485, -0.20295937359333038, 0.16021357476711273, 23.504785537719727, -0.042513951659202576, -0.03577280044555664, 9.785197257995605, -0.1446349173784256, -0.2714049518108368, -0.49791085720062256
60, 271889152, -0.2033843994140625, 0.1610809862613678, 23.506641387939453, -0.042163483798503876, -0.03254348784685135, 9.793482780456543, -0.13891686499118805, -0.18646684288978577, -0.4834332764148712
61, 271905819, -0.2053760290145874, 0.16117997467517853, 23.506933212280273, -0.03765746206045151, -0.044523779302835464, 9.789685249328613, -0.23253130912780762, -0.23438824713230133, -0.4804750382900238
62, 271922486, -0.20525264739990234, 0.16097551584243774, 23.508472442626953, -0.036942221224308014, -0.05174414440989494, 9.796010971069336, -0.103981152176857, -0.25308549404144287, -0.4493299722671509
63, 271939153, -0.20533548295497894, 0.1610625684261322, 23.507213592529297, -0.03839043527841568, -0.040847133845090866, 9.810798645019531, -0.11437991261482239, -0.2366933822631836, -0.4640060365200043
64, 271955820, -0.205675408244133, 0.16024106740951538, 23.511260986328125, -0.024411043152213097, -0.031531088054180145, 9.782554626464844, -0.12883828580379486, -0.292695552110672, -0.4191838800907135
65, 271972487, -0.20613625645637512, 0.16044369339942932, 23.504560470581055, -0.036766987293958664, -0.033859532326459885, 9.786176681518555, -0.13690628111362457, -0.22938092052936554, -0.4730217158794403
66, 271989154, -0.20488065481185913, 0.15958315134048462, 23.50971221923828, -0.028173360973596573, -0.02336336299777031, 9.789981842041016, -0.03363587707281113, -0.29415544867515564, -0.4159054160118103
67, 272005821, -0.20391114056110382, 0.15958519279956818, 23.511484146118164, -0.03484305739402771, -0.0243721604347229, 9.79546070098877, -0.053114332258701324, -0.24161097407341003, -0.4623924493789673
68, 272022488, -0.20405077934265137, 0.15804503858089447, 23.516244888305664, -0.02654632367193699, -0.03666722774505615, 9.798063278198242, -0.12015558034181595, -0.3351998031139374, -0.4153291583061218
69, 272039155, -0.20576366782188416, 0.1583455502986908, 23.517927169799805, -0.04151647165417671, -0.05242391675710678, 9.797853469848633, -0.2145511656999588, -0.223336324095726, -0.47705572843551636
70, 272055822, -0.20360508561134338, 0.15854595601558685, 23.516864776611328, -0.02984342724084854, -0.05344311520457268, 9.785953521728516, 0.019824229180812836, -0.2318461537361145, -0.4393218159675598
71, 272072489, -0.20276516675949097, 0.15816077589988708, 23.517179489135742, -0.019683444872498512, -0.04459888115525246, 9.793404579162598, -0.057173952460289, -0.26552045345306396, -0.40749168395996094
72, 272089156, -0.20050197839736938, 0.1575760692358017, 23.516687393188477, -0.03549382463097572, -0.0443202406167984, 9.787906646728516, 0.029134444892406464, -0.2769821286201477, -0.41085970401763916
73, 272105823, -0.20004624128341675, 0.1574757993221283, 23.51565170288086, -0.03131338953971863, -0.03282637149095535, 9.799047470092773, -0.07818916440010071, -0.2476940155029297, -0.5363363027572632
74, 272122490, -0.20004500448703766, 0.15689510107040405, 23.516170501708984, -0.03242189437150955, -0.03299051150679588, 9.812776565551758, -0.10560756176710129, -0.2771998345851898, -0.5192654132843018
75, 272139157, -0.20105677843093872, 0.15686380863189697, 23.516983032226562, -0.035250674933195114, -0.032632891088724136, 9.799055099487305, -0.16664260625839233, -0.2438393086194992, -0.47714534401893616
76, 272155824, -0.20116668939590454, 0.15601031482219696, 23.51947784423828, -0.040357500314712524, -0.021296314895153046, 9.801947593688965, -0.11330416798591614, -0.29457804560661316, -0.4199650287628174
77, 272172491, -0.2001306712627411, 0.15567229688167572, 23.5198974609375, -0.03691009432077408, -0.03661711886525154, 9.791691780090332, -0.04559701308608055, -0.26429104804992676, -0.4617009460926056
78, 272189158, -0.20024991035461426, 0.15543626248836517, 23.51927947998047, -0.03669903799891472, -0.03389529138803482, 9.790815353393555, -0.1150074303150177, -0.25816962122917175, -0.4460259675979614
79, 272205825, -0.200912743806839, 0.15429943799972534, 23.525449752807617, -0.02495119906961918, -0.03481437638401985, 9.794466018676758, -0.14742028713226318, -0.31381314992904663, -0.39706724882125854
80, 272222492, -0.2024255245923996, 0.1540624052286148, 23.52669334411621, -0.027926603332161903, -0.036581024527549744, 9.795367240905762, -0.19886979460716248, -0.25903400778770447, -0.4673420786857605
81, 272239159, -0.2028394490480423, 0.15199652314186096, 23.519502639770508, -0.038057997822761536, -0.04944106563925743, 9.786055564880371, -0.13211031258106232, -0.3675294518470764, -0.503379225730896
82, 272255826, -0.20322880148887634, 0.1513155996799469, 23.515268325805664, -0.02672499790787697, -0.04211699217557907, 9.798975944519043, -0.1291840374469757, -0.2857544720172882, -0.4773886203765869
83, 272272493, -0.204221710562706, 0.15067102015018463, 23.51561737060547, -0.02930344268679619, -0.039871133863925934, 9.77428913116455, -0.16516989469528198, -0.28366705775260925, -0.4346410930156708
84, 272289160, -0.20284795761108398, 0.15087413787841797, 23.5185489654541, -0.030240409076213837, -0.03330879285931587, 9.819242477416992, -0.023019414395093918, -0.2328386753797531, -0.46971771121025085
85, 272305827, -0.20353913307189941, 0.15220528841018677, 23.517061233520508, -0.03055511601269245, -0.026442477479577065, 9.79278564453125, -0.14748431742191315, -0.16491375863552094, -0.4346923232078552
86, 272322494, -0.20364096760749817, 0.15178850293159485, 23.515167236328125, -0.022283347323536873, -0.030458558350801468, 9.777172088623047, -0.11169057339429855, -0.2696568965911865, -0.4772734045982361
87, 272339161, -0.2041594535112381, 0.15078894793987274, 23.51587677001953, -0.04598287492990494, -0.041720032691955566, 9.800843238830566, -0.13858391344547272, -0.3041187524795532, -0.4643518030643463
88, 272355828, -0.20310759544372559, 0.1507561355829239, 23.51703453063965, -0.04815363138914108, -0.03682420775294304, 9.779861450195312, -0.04286925122141838, -0.24715615808963776, -0.462405264377594
89, 272372495, -0.2027623951435089, 0.1511472761631012, 23.51860809326172, -0.05285634472966194, -0.050270747393369675, 9.793425559997559, -0.08487408608198166, -0.22364367544651031, -0.49671345949172974
90, 272389162, -0.20429031550884247, 0.15024395287036896, 23.516719818115234, -0.05128638818860054, -0.029432186856865883, 9.795538902282715, -0.19687841832637787, -0.303324818611145, -0.5053449273109436
91, 272405829, -0.20404919981956482, 0.15029869973659515, 23.511577606201172, -0.03491451218724251, -0.03847283869981766, 9.793582916259766, -0.09058570861816406, -0.24764278531074524, -0.5362850427627563
92, 272422496, -0.20413534343242645, 0.1485811024904251, 23.508895874023438, -0.01027444377541542, -0.025276632979512215, 9.795571327209473, -0.11060843616724014, -0.3546590507030487, -0.425260454416275
93, 272439163, -0.20363712310791016, 0.14983607828617096, 23.50836753845215, -0.025498252362012863, -0.030233019962906837, 9.818416595458984, -0.07592244446277618, -0.1741599440574646, -0.4890040457248688
94, 272455830, -0.20432180166244507, 0.1498771756887436, 23.511905670166016, -0.011951684951782227, -0.029196156188845634, 9.80377197265625, -0.14716416597366333, -0.2467719316482544, -0.48529016971588135
95, 272472497, -0.20465229451656342, 0.15140096843242645, 23.510326385498047, -0.025387495756149292, -0.038655225187540054, 9.789016723632812, -0.12736554443836212, -0.15676891803741455, -0.5027709007263184
96, 272489164, -0.2041383534669876, 0.15410998463630676, 23.50876808166504, -0.05269888788461685, -0.04639044776558876, 9.782539367675781, -0.07581999897956848, -0.08473321050405502, -0.47361087799072266
97, 272505831, -0.2047140896320343, 0.15391795337200165, 23.506906509399414, -0.044988688081502914, -0.0531245581805706, 9.78244686126709, -0.1406073272228241, -0.2607564926147461, -0.42215490341186523
98, 272522498, -0.2042819857597351, 0.1536623239517212, 23.507186889648438, -0.047062888741493225, -0.03311210498213768, 9.801955223083496, -0.07854774594306946, -0.2663784623146057, -0.4271877706050873
99, 272539165, -0.2049509882926941, 0.15390799939632416, 23.507787704467773, -0.04619407281279564, -0.032282754778862, 9.790983200073242, -0.14489103853702545, -0.23693028092384338, -0.5040963292121887
100, 272555832, -0.204629048705101, 0.15223783254623413, 23.508407592773438, -0.04196321591734886, -0.026703540235757828, 9.791058540344238, -0.08502776175737381, -0.35375621914863586, -0.4408906400203705
101, 272572499, -0.20572873950004578, 0.15162421762943268, 23.506845474243164, -0.03829379007220268, -0.020995521917939186, 9.803046226501465, -0.17217494547367096, -0.29030072689056396, -0.4896443784236908
102, 272589166, -0.2067674994468689, 0.15150274336338043, 23.5058650970459, -0.02676054835319519, -0.03850827366113663, 9.7982177734375, -0.16863401234149933, -0.2620563209056854, -0.4483758807182312
103, 272605833, -0.20587757229804993, 0.15108849108219147, 23.50368881225586, -0.03399191424250603, -0.02229439839720726, 9.800291061401367, -0.05392114073038101, -0.27947938442230225, -0.42319226264953613
104, 272622500, -0.2069384902715683, 0.1509227156639099, 23.504655838012695, -0.019250724464654922, -0.036509498953819275, 9.819303512573242, -0.17134253680706024, -0.2649569809436798, -0.4820757806301117
105, 272639167, -0.2074946016073227, 0.15112610161304474, 23.508684158325195, -0.0064550540409982204, -0.05774502083659172, 9.804344177246094, -0.14102992415428162, -0.2417774647474289, -0.43019726872444153
106, 272655834, -0.2076098471879959, 0.152769535779953, 23.511812210083008, -0.010835908353328705, -0.04725242778658867, 9.798096656799316, -0.11238212138414383, -0.15292701125144958, -0.4838430881500244
107, 272672501, -0.20801641047000885, 0.154219850897789, 23.5103759765625, -0.01688685081899166, -0.055120084434747696, 9.803492546081543, -0.12950420379638672, -0.16327455639839172, -0.4920775592327118
108, 272689168, -0.2058061808347702, 0.15674898028373718, 23.51154899597168, -0.04386930167675018, -0.04634777083992958, 9.799098014831543, 0.028327643871307373, -0.09801340103149414, -0.4655940532684326
109, 272705835, -0.2057487815618515, 0.1568349003791809, 23.513072967529297, -0.0627087950706482, -0.04345449432730675, 9.772629737854004, -0.09942208975553513, -0.24604198336601257, -0.4417742192745209
110, 272722502, -0.20447610318660736, 0.1577739715576172, 23.515100479125977, -0.05520236864686012, -0.027318891137838364, 9.790243148803711, -0.02561909891664982, -0.1965070217847824, -0.4497654139995575
111, 272739169, -0.20244590938091278, 0.15725170075893402, 23.515419006347656, -0.05074280500411987, -0.018717868253588676, 9.79401969909668, 0.018722882494330406, -0.28629234433174133, -0.46522265672683716
112, 272755836, -0.20250938832759857, 0.15685556828975677, 23.517728805541992, -0.02704685553908348, 0.0015628025867044926, 9.786931037902832, -0.108930803835392, -0.2800876498222351, -0.42061173915863037
113, 272772503, -0.20104694366455078, 0.15647467970848083, 23.515796661376953, -0.004323634784668684, -0.00825746264308691, 9.804136276245117, -0.0187164805829525, -0.27937692403793335, -0.5250667333602905
114, 272789170, -0.202887162566185, 0.15610268712043762, 23.51875877380371, -0.0012621422065421939, -0.019815435633063316, 9.814045906066895, -0.21958406269550323, -0.2762393355369568, -0.4310937225818634
115, 272805837, -0.20511296391487122, 0.15682703256607056, 23.517658233642578, -0.004781389143317938, -0.04648711904883385, 9.801790237426758, -0.24339106678962708, -0.20821203291416168, -0.5496420860290527
116, 272822504, -0.20461925864219666, 0.15767249464988708, 23.52080726623535, -0.03128456696867943, -0.07135941088199615, 9.797853469848633, -0.08000767230987549, -0.19973422586917877, -0.4283275306224823
117, 272839171, -0.20408771932125092, 0.15810520946979523, 23.518436431884766, -0.03804011642932892, -0.056850966066122055, 9.80082893371582, -0.07428964227437973, -0.22425197064876556, -0.4999726712703705
118, 272855838, -0.20390239357948303, 0.15843822062015533, 23.516813278198242, -0.04726660996675491, -0.047413069754838943, 9.794584274291992, -0.09436999261379242, -0.23157721757888794, -0.4416525661945343
119, 272872505, -0.2041495442390442, 0.15930213034152985, 23.515914916992188, -0.0520266629755497, -0.047095075249671936, 9.801933288574219, -0.11867643147706985, -0.20047058165073395, -0.44056400656700134
120, 272889172, -0.2054576426744461, 0.15907499194145203, 23.514453887939453, -0.049734070897102356, -0.018814075738191605, 9.784939765930176, -0.18209989368915558, -0.2668522894382477, -0.47705572843551636
121, 272905839, -0.20469187200069427, 0.1586555391550064, 23.512094497680664, -0.03858376666903496, -0.018117371946573257, 9.801410675048828, -0.05882596597075462, -0.28092649579048157, -0.4009988009929657
122, 272922506, -0.20311447978019714, 0.15890081226825714, 23.51104164123535, -0.03119523823261261, -0.02475777454674244, 9.807708740234375, -0.011237571015954018, -0.24080419540405273, -0.4632376730442047
123, 272939173, -0.20353464782238007, 0.1596844494342804, 23.511932373046875, -0.011819365434348583, -0.029711131006479263, 9.792016983032227, -0.13156603276729584, -0.2085322141647339, -0.46605512499809265
124, 272955840, -0.2034541368484497, 0.1607700139284134, 23.510940551757812, -0.009916683658957481, -0.03514670580625534, 9.81208324432373, -0.10244439542293549, -0.1888360232114792, -0.49143728613853455
125, 272972507, -0.2042887806892395, 0.16303004324436188, 23.512399673461914, -0.033330030739307404, -0.056067612022161484, 9.788061141967773, -0.1570826768875122, -0.11713968217372894, -0.5014837980270386
126, 272989174, -0.2032146155834198, 0.16468220949172974, 23.513721466064453, -0.03269011154770851, -0.04758501425385475, 9.806500434875488, -0.04111478477716446, -0.15413081645965576, -0.4863787293434143
127, 273005841, -0.20160426199436188, 0.16533616185188293, 23.510822296142578, -0.041036978363990784, -0.03616618365049362, 9.786552429199219, -0.00781827699393034, -0.21407733857631683, -0.43348851799964905
128, 273022508, -0.20225055515766144, 0.16417278349399567, 23.517393112182617, -0.058206167072057724, -0.037360236048698425, 9.766453742980957, -0.14370644092559814, -0.3237124979496002, -0.45040568709373474
129, 273039175, -0.201113760471344, 0.16396759450435638, 23.519086837768555, -0.055306047201156616, -0.02986133098602295, 9.776638984680176, -0.03591540828347206, -0.26795366406440735, -0.46418535709381104
130, 273055842, -0.19728153944015503, 0.1629333794116974, 23.520313262939453, -0.03579068183898926, -0.014329862780869007, 9.808842658996582, 0.1251436471939087, -0.31925588846206665, -0.4452063739299774
131, 273072509, -0.19626644253730774, 0.16195173561573029, 23.523664474487305, -0.027311494573950768, -0.019397348165512085, 9.79866886138916, -0.04614768177270889, -0.3173861503601074, -0.35200169682502747
132, 273089176, -0.1940983384847641, 0.16103406250476837, 23.527381896972656, -0.006809098646044731, -0.0246114581823349, 9.7875394821167, 0.022910557687282562, -0.3128655254840851, -0.44081375002861023
133, 273105843, -0.19508741796016693, 0.15979325771331787, 23.529541015625, -0.0229807086288929, -0.03654883801937103, 9.809408187866211, -0.16710364818572998, -0.3294881284236908, -0.47498106956481934
134, 273122510, -0.19627316296100616, 0.16141438484191895, 23.528705596923828, -0.023081067949533463, -0.051200758665800095, 9.776246070861816, -0.17934651672840118, -0.15801113843917847, -0.4605867564678192
135, 273139177, -0.19713348150253296, 0.1616593301296234, 23.52851104736328, -0.034631989896297455, -0.07432431727647781, 9.78512191772461, -0.1581392139196396, -0.2399589568376541, -0.4406857192516327
136, 273155844, -0.19645658135414124, 0.1614908128976822, 23.52930450439453, -0.04265342280268669, -0.05625016614794731, 9.791831016540527, -0.06293680518865585, -0.2652643322944641, -0.4870958924293518
137, 273172511, -0.19459573924541473, 0.16176441311836243, 23.531982421875, -0.04396231472492218, -0.04316839948296547, 9.785629272460938, 0.009329426102340221, -0.2393890917301178, -0.4846178889274597
138, 273189178, -0.19390161335468292, 0.16074232757091522, 23.533084869384766, -0.05627519637346268, -0.022347718477249146, 9.79971981048584, -0.0602794885635376, -0.3185323476791382, -0.41109660267829895
139, 273205845, -0.1941802203655243, 0.16048374772071838, 23.53693389892578, -0.03727838397026062, -0.018435347825288773, 9.807951927185059, -0.11982261389493942, -0.27407506108283997, -0.36792001128196716
140, 273222512, -0.19313590228557587, 0.15973900258541107, 23.540111541748047, -0.015756821259856224, -0.007392392493784428, 9.797956466674805, -0.04055130109190941, -0.3030686378479004, -0.4488177001476288
141, 273239179, -0.19271104037761688, 0.15942195057868958, 23.535982131958008, -0.016775988042354584, -0.02308441884815693, 9.806893348693848, -0.08005889505147934, -0.27752000093460083, -0.46248215436935425
142, 273255846, -0.19278180599212646, 0.16092681884765625, 23.53539276123047, -0.014737709425389767, -0.04405554011464119, 9.827643394470215, -0.11028187721967697, -0.1660023033618927, -0.5231969952583313
143, 273272513, -0.19525328278541565, 0.1622420996427536, 23.53535270690918, -0.016858240589499474, -0.04189884290099144, 9.805720329284668, -0.2537257969379425, -0.1771310269832611, -0.4793480634689331
144, 273289180, -0.19695337116718292, 0.16306255757808685, 23.532421112060547, -0.032017782330513, -0.055985525250434875, 9.77904224395752, -0.20613740384578705, -0.20575322210788727, -0.45094355940818787
145, 273305847, -0.19640500843524933, 0.16304631531238556, 23.52861785888672, -0.04392644390463829, -0.05441519245505333, 9.801107406616211, -0.07067183405160904, -0.2553778290748596, -0.5362594723701477
146, 273322514, -0.1964445859193802, 0.16364091634750366, 23.528371810913086, -0.05110400170087814, -0.05065697804093361, 9.785636901855469, -0.10440376400947571, -0.22018596529960632, -0.45871701836586
147, 273339181, -0.1955723911523819, 0.16230469942092896, 23.528188705444336, -0.035830020904541016, -0.03713176026940346, 9.788518905639648, -0.04847843945026398, -0.33760738372802734, -0.4819093346595764
148, 273355848, -0.1933402568101883, 0.16153307259082794, 23.52779769897461, -0.04632261395454407, -0.033126406371593475, 9.791391372680664, 0.03313002735376358, -0.30374738574028015, -0.5229536294937134
149, 273372515, -0.1927596926689148, 0.16161151230335236, 23.528905868530273, -0.015889089554548264, -0.02577730268239975, 9.802337646484375, -0.06608076393604279, -0.2532327473163605, -0.4163472056388855
150, 273389182, -0.19246669113636017, 0.16294357180595398, 23.529726028442383, -0.016114389523863792, -0.01225923839956522, 9.81994342803955, -0.08459874987602234, -0.17785458266735077, -0.464191734790802
151, 273405849, -0.1922191083431244, 0.16302183270454407, 23.528608322143555, -0.013797007501125336, -0.02615995705127716, 9.791348457336426, -0.08744174987077713, -0.2516447603702545, -0.45650792121887207
152, 273422516, -0.19304679334163666, 0.16432251036167145, 23.527544021606445, -0.00374808837659657, -0.04900502786040306, 9.80744457244873, -0.15292701125144958, -0.17727187275886536, -0.5337622165679932
153, 273439183, -0.19218778610229492, 0.16462154686450958, 23.525100708007812, -0.04211334511637688, -0.03419538214802742, 9.784985542297363, -0.0512574203312397, -0.23560483753681183, -0.48278018832206726
154, 273455850, -0.19325311481952667, 0.16487407684326172, 23.521087646484375, -0.05192319303750992, -0.05862510949373245, 9.766365051269531, -0.16652736067771912, -0.23896007239818573, -0.5194063186645508
155, 273472517, -0.19360272586345673, 0.16424906253814697, 23.52009391784668, -0.05685438588261604, -0.05308127775788307, 9.78022575378418, -0.12121210247278214, -0.2939569652080536, -0.45096275210380554
156, 273489184, -0.19322925806045532, 0.163423553109169, 23.519454956054688, -0.06063459441065788, -0.031878311187028885, 9.796143531799316, -0.0776769146323204, -0.3063471019268036, -0.4676046371459961
157, 273505851, -0.19044122099876404, 0.16334399580955505, 23.519798278808594, -0.0330691896378994, -0.03993908315896988, 9.793135643005371, 0.06707966327667236, -0.26459839940071106, -0.42015713453292847
158, 273522518, -0.1892106831073761, 0.16222749650478363, 23.51628875732422, -0.018592702224850655, -0.009931127540767193, 9.78343391418457, -0.02547823265194893, -0.3260560929775238, -0.4556051194667816
159, 273539185, -0.1870744824409485, 0.16208046674728394, 23.518407821655273, -0.011483201757073402, -0.020016031339764595, 9.785990715026855, 0.026778075844049454, -0.26824820041656494, -0.3724278211593628
160, 273555852, -0.18691545724868774, 0.1636226624250412, 23.520370483398438, -0.004960199352353811, -0.027533220127224922, 9.816062927246094, -0.0918407291173935, -0.16481131315231323, -0.3950694501399994
161, 273572519, -0.1874585896730423, 0.164632186293602, 23.52316665649414, -0.015839021652936935, -0.028888601809740067, 9.795971870422363, -0.13503654301166534, -0.19520078599452972, -0.4838302731513977
162, 273589186, -0.1866770088672638, 0.16620589792728424, 23.523014068603516, -0.02683943510055542, -0.04688050225377083, 9.771053314208984, -0.055534735321998596, -0.16022664308547974, -0.42225733399391174
163, 273605853, -0.1858273148536682, 0.16635186970233917, 23.522451400756836, -0.04172009974718094, -0.04544675350189209, 9.789481163024902, -0.050975676625967026, -0.24563220143318176, -0.4590372145175934
164, 273622520, -0.186460942029953, 0.16621731221675873, 23.52308464050293, -0.05368959903717041, -0.042989589273929596, 9.779528617858887, -0.13840462267398834, -0.26394525170326233, -0.4875953495502472
165, 273639187, -0.18549004197120667, 0.16531983017921448, 23.52550506591797, -0.04304680600762367, -0.04551081359386444, 9.77944278717041, -0.04235700145363808, -0.3106372058391571, -0.4004097580909729
166, 273655854, -0.18585677444934845, 0.16474810242652893, 23.523300170898438, -0.04113711416721344, -0.03138837218284607, 9.806203842163086, -0.12126973271369934, -0.2910434901714325, -0.519047737121582
167, 273672521, -0.18399038910865784, 0.163597971200943, 23.523183822631836, -0.02159672975540161, -0.036648593842983246, 9.797775268554688, 0.012390143238008022, -0.32686924934387207, -0.42536288499832153
168, 273689188, -0.1829160451889038, 0.1642291247844696, 23.524730682373047, -0.00211353856138885, -0.044648949056863785, 9.815845489501953, -0.0345771461725235, -0.21964168548583984, -0.44162699580192566
169, 273705855, -0.18314051628112793, 0.16610141098499298, 23.52426528930664, -0.00695228623226285, -0.028270097449421883, 9.806060791015625, -0.11216440796852112, -0.143463134765625, -0.453095018863678
170, 273722522, -0.1843203455209732, 0.16950903832912445, 23.522655487060547, 0.0010692860232666135, -0.04138029366731644, 9.797574043273926, -0.16992105543613434, -0.04925962910056114, -0.5080087184906006
171, 273739189, -0.18314239382743835, 0.1720845103263855, 23.521406173706055, -0.03853005915880203, -0.03414205089211464, 9.78604793548584, -0.027463216334581375, -0.09815426170825958, -0.4941393733024597
172, 273755856, -0.18300871551036835, 0.1733052134513855, 23.522037506103516, -0.06122824549674988, -0.03321223706007004, 9.779810905456543, -0.09048325568437576, -0.17921845614910126, -0.45756447315216064
173, 273772523, -0.18346066772937775, 0.1737453192472458, 23.520864486694336, -0.05041021853685379, -0.017305267974734306, 9.787314414978027, -0.12485549598932266, -0.2274983674287796, -0.5333268046379089
174, 273789190, -0.18313820660114288, 0.1744087040424347, 23.522064208984375, -0.05912543460726738, -0.019418805837631226, 9.794684410095215, -0.08025739341974258, -0.21619677543640137, -0.4250043034553528
175, 273805857, -0.1847318559885025, 0.17403122782707214, 23.52140998840332, -0.04149497300386429, -0.016161223873496056, 9.794620513916016, -0.19581548869609833, -0.2797355055809021, -0.44886893033981323
176, 273822524, -0.185947984457016, 0.17291589081287384, 23.51998519897461, -0.027794282883405685, -0.030919888988137245, 9.776918411254883, -0.17317385971546173, -0.3242887556552887, -0.4911555051803589
177, 273839191, -0.1841132938861847, 0.1727646291255951, 23.51544952392578, -0.01623239554464817, -0.045153580605983734, 9.809590339660645, 0.008336933329701424, -0.26582780480384827, -0.5292031764984131
178, 273855858, -0.18315422534942627, 0.17318633198738098, 23.51552391052246, -0.01838170550763607, -0.05397569760680199, 9.807644844055176, -0.04274759441614151, -0.23118022084236145, -0.47535887360572815
179, 273872525, -0.1853720098733902, 0.17428572475910187, 23.51367950439453, -0.0251371618360281, -0.05291713774204254, 9.787574768066406, -0.2315836250782013, -0.18872077763080597, -0.48165321350097656
180, 273889192, -0.18427161872386932, 0.17378322780132294, 23.513975143432617, -0.025566305965185165, -0.061761099845170975, 9.787449836730957, -0.031919825822114944, -0.28539592027664185, -0.4503673017024994
181, 273905859, -0.18199610710144043, 0.17406055331230164, 23.513349533081055, -0.041133489459753036, -0.05370059981942177, 9.804182052612305, 0.03993019834160805, -0.23805081844329834, -0.4289422631263733
182, 273922526, -0.18057255446910858, 0.17376522719860077, 23.5133113861084, -0.02928915247321129, -0.02787328138947487, 9.783439636230469, -0.010584447532892227, -0.2727944552898407, -0.4372151792049408
183, 273939193, -0.1794760823249817, 0.17393352091312408, 23.510141372680664, -0.046465661376714706, -9.655759786255658E-4, 9.789491653442383, -0.029614683240652084, -0.24517115950584412, -0.466477632522583
184, 273955860, -0.1790844053030014, 0.1743747740983963, 23.5117130279541, -0.02706482820212841, -0.00704540777951479, 9.794755935668945, -0.07374536991119385, -0.22958584129810333, -0.44482219219207764
185, 273972527, -0.18024812638759613, 0.1764725148677826, 23.510082244873047, -0.02370310202240944, -0.014816226437687874, 9.78546142578125, -0.16819217801094055, -0.12922246754169464, -0.4912835657596588
186, 273989194, -0.18207967281341553, 0.1778906136751175, 23.5080623626709, -0.03885549306869507, -0.0301510039716959, 9.791759490966797, -0.2099793404340744, -0.1694856435060501, -0.4889400601387024
187, 274005861, -0.18310292065143585, 0.17923633754253387, 23.50638198852539, -0.03231794014573097, -0.04153738170862198, 9.786967277526855, -0.16126395761966705, -0.1743648648262024, -0.5474778413772583
188, 274022528, -0.18272101879119873, 0.17957504093647003, 23.505456924438477, -0.040439750999212265, -0.05304946005344391, 9.792352676391602, -0.0765947699546814, -0.23497088253498077, -0.46455031633377075
189, 274039195, -0.18343386054039001, 0.1797288954257965, 23.504167556762695, -0.03731076046824455, -0.07096658647060394, 9.784728050231934, -0.140562504529953, -0.245830699801445, -0.4889848828315735
190, 274055862, -0.18240505456924438, 0.1791982799768448, 23.505367279052734, -0.04828237369656563, -0.06073473021388054, 9.782238960266113, -0.03442346677184105, -0.2877586781978607, -0.43722155690193176
191, 274072529, -0.18313130736351013, 0.17767910659313202, 23.50231170654297, -0.03542948514223099, -0.04473477602005005, 9.781488418579102, -0.13840462267398834, -0.34762194752693176, -0.507009744644165
192, 274089196, -0.18237678706645966, 0.17698749899864197, 23.504091262817383, -0.01447291113436222, -0.032847464084625244, 9.789763450622559, -0.048260726034641266, -0.29834312200546265, -0.4503800570964813
193, 274105863, -0.18084989488124847, 0.17623507976531982, 23.504459381103516, -0.011830093339085579, -0.0197120551019907, 9.812851905822754, -0.0023883841931819916, -0.30108368396759033, -0.4415821433067322
194, 274122530, -0.18195728957653046, 0.17743167281150818, 23.5049991607666, -0.013017394579946995, -0.01179433148354292, 9.791937828063965, -0.1611102819442749, -0.18299631774425507, -0.3923161029815674
195, 274139197, -0.18128934502601624, 0.17926380038261414, 23.503812789916992, -0.01704062707722187, -0.029600268229842186, 9.816424369812012, -0.05582928657531738, -0.1431686133146286, -0.498403936624527
196, 274155864, -0.18177635967731476, 0.18122291564941406, 23.504722595214844, -0.034728385508060455, -0.041229914873838425, 9.799909591674805, -0.12583521008491516, -0.13520947098731995, -0.46927589178085327
197, 274172531, -0.18407632410526276, 0.18346790969371796, 23.503475189208984, -0.032611433416604996, -0.041627053171396255, 9.788908958435059, -0.23330603539943695, -0.1181129589676857, -0.4883444905281067
198, 274189198, -0.18445998430252075, 0.18436060845851898, 23.50107192993164, -0.061786290258169174, -0.04870462790131569, 9.769819259643555, -0.11806812882423401, -0.1988377571105957, -0.47145935893058777
199, 274205865, -0.18431109189987183, 0.18414199352264404, 23.49970817565918, -0.05975138396024704, -0.05412980914115906, 9.789875030517578, -0.08582174777984619, -0.26735174655914307, -0.45653992891311646
200, 274222532, -0.1849072426557541, 0.18304505944252014, 23.49836540222168, -0.04450589790940285, -0.03304057940840721, 9.791007995605469, -0.12929290533065796, -0.3212985396385193, -0.47727981209754944
201, 274239199, -0.18189483880996704, 0.17949369549751282, 23.499286651611328, -0.03138121962547302, -0.015452791936695576, 9.7893705368042, 0.08730088919401169, -0.46876367926597595, -0.44252344965934753
202, 274255866, -0.18160605430603027, 0.17918764054775238, 23.500802993774414, -0.016754530370235443, -0.02055961638689041, 9.797410011291504, -0.07711342722177505, -0.2746257781982422, -0.4319901764392853
203, 274272533, -0.1813213974237442, 0.17688418924808502, 23.501644134521484, -0.013546673581004143, -0.015481401234865189, 9.793815612792969, -0.0775168314576149, -0.3935006856918335, -0.45015600323677063
204, 274289200, -0.1802487075328827, 0.17706042528152466, 23.501428604125977, -0.019154123961925507, -0.027064431458711624, 9.80467700958252, -0.03190701827406883, -0.24340388178825378, -0.4525059461593628
205, 274305867, -0.17887188494205475, 0.17792534828186035, 23.50144386291504, -0.021507328376173973, -0.06189367547631264, 9.808721542358398, -0.013933307491242886, -0.20168718695640564, -0.45963266491889954
206, 274322534, -0.1807573437690735, 0.17953841388225555, 23.500207901000977, -0.03235037252306938, -0.047445543110370636, 9.790750503540039, -0.20818640291690826, -0.15544986724853516, -0.4295697808265686
207, 274339201, -0.1790575236082077, 0.17970503866672516, 23.497041702270508, -0.04620460420846939, -0.05911797285079956, 9.77971076965332, 0.007542939390987158, -0.24234095215797424, -0.4576028883457184
208, 274355868, -0.17949937283992767, 0.17931604385375977, 23.499006271362305, -0.05105035752058029, -0.044906433671712875, 9.797395706176758, -0.11911187320947647, -0.27710384130477905, -0.4334181547164917
209, 274372535, -0.17789070308208466, 0.17832623422145844, 23.500429153442383, -0.04176652431488037, -0.02565213479101658, 9.777490615844727, 0.004386174958199263, -0.31379398703575134, -0.4294224977493286
210, 274389202, -0.17739664018154144, 0.17646656930446625, 23.504199981689453, -0.04691626504063606, -0.016042865812778473, 9.797853469848633, -0.06207237392663956, -0.3671836256980896, -0.4639739990234375
211, 274405869, -0.17517581582069397, 0.17553116381168365, 23.503889083862305, -0.024768752977252007, -0.016747841611504555, 9.793983459472656, 0.04010948911309242, -0.3108420968055725, -0.5436999797821045
212, 274422536, -0.17612235248088837, 0.1746765524148941, 23.505510330200195, -0.020441412925720215, -0.02615242451429367, 9.787388801574707, -0.1513134241104126, -0.30720511078834534, -0.4490610957145691
213, 274439203, -0.17625606060028076, 0.173671156167984, 23.505401611328125, -0.015788955613970757, -0.028312833979725838, 9.812047004699707, -0.10213064402341843, -0.3141910135746002, -0.542976438999176
214, 274455870, -0.17798946797847748, 0.17398366332054138, 23.506696701049805, -0.009734435938298702, -0.05481252819299698, 9.799666404724121, -0.19822949171066284, -0.23539353907108307, -0.4704028069972992
215, 274472537, -0.17925216257572174, 0.17606960237026215, 23.505544662475586, -0.023985622450709343, -0.04800700768828392, 9.790772438049316, -0.16990827023983002, -0.12696856260299683, -0.47462254762649536
216, 274489204, -0.17857947945594788, 0.1767628788948059, 23.505779266357422, -0.024361124262213707, -0.0631665512919426, 9.791459083557129, -0.05236516147851944, -0.21079251170158386, -0.4783811867237091
217, 274505871, -0.17882679402828217, 0.17744433879852295, 23.50352668762207, -0.041162144392728806, -0.046630166471004486, 9.794655799865723, -0.10668329149484634, -0.20994088053703308, -0.5076372623443604
218, 274522538, -0.1781274676322937, 0.17663176357746124, 23.50065040588379, -0.03903423249721527, -0.04266374930739403, 9.804780006408691, -0.04849124327301979, -0.3004177510738373, -0.48733922839164734
219, 274539205, -0.17821988463401794, 0.17670677602291107, 23.49990463256836, -0.03609466180205345, -0.022469310089945793, 9.784956932067871, -0.09618209302425385, -0.2480141818523407, -0.4431445002555847
220, 274555872, -0.17917658388614655, 0.17631755769252777, 23.4986572265625, -0.04704858362674713, -0.018435347825288773, 9.770502090454102, -0.148764967918396, -0.2760728597640991, -0.46194422245025635
221, 274572539, -0.17964239418506622, 0.17606483399868011, 23.4996280670166, -0.02683943510055542, -0.013224815018475056, 9.799695014953613, -0.1194896548986435, -0.26888853311538696, -0.4366133213043213
222, 274589206, -0.18107232451438904, 0.17709234356880188, 23.49875831604004, -0.02415728010237217, -0.02116757072508335, 9.800463676452637, -0.17902635037899017, -0.19093625247478485, -0.4216938614845276
223, 274605873, -0.17983973026275635, 0.17787256836891174, 23.495399475097656, -0.020387986674904823, -0.04021475091576576, 9.78364086151123, -0.019587310031056404, -0.20562513172626495, -0.5335444211959839
224, 274622540, -0.18012596666812897, 0.17980621755123138, 23.495697021484375, -0.03057299554347992, -0.0548161044716835, 9.789924621582031, -0.10971839725971222, -0.13618911802768707, -0.4717026948928833
225, 274639207, -0.1807500571012497, 0.17992675304412842, 23.492904663085938, -0.030787568539381027, -0.04398377239704132, 9.788283348083496, -0.1299908459186554, -0.24476134777069092, -0.5069457292556763
226, 274655874, -0.18234099447727203, 0.1790120005607605, 23.49184799194336, -0.04874703288078308, -0.04477371647953987, 9.772909164428711, -0.18664613366127014, -0.30669286847114563, -0.4726247191429138
227, 274672541, -0.17936347424983978, 0.17836922407150269, 23.492969512939453, -0.039656560868024826, -0.03904145583510399, 9.783916473388672, 0.08763384073972702, -0.2909282147884369, -0.47080621123313904
228, 274689208, -0.1796952784061432, 0.17823444306850433, 23.49114990234375, -0.029321324080228806, -0.04044690355658531, 9.821331024169922, -0.11078131943941116, -0.2612559497356415, -0.4291855990886688
229, 274705875, -0.17866243422031403, 0.17773547768592834, 23.487775802612305, -0.030111705884337425, -0.02628192864358425, 9.789546012878418, -0.02941618487238884, -0.28250807523727417, -0.4938640296459198
230, 274722542, -0.17919927835464478, 0.17736445367336273, 23.488698959350586, -0.034070372581481934, 0.00557563966140151, 9.784642219543457, -0.12232626229524612, -0.27524685859680176, -0.4448029696941376
231, 274739209, -0.17883369326591492, 0.1770038902759552, 23.48906135559082, -0.025959689170122147, -0.013342829421162605, 9.799819946289062, -0.07083191722631454, -0.2744656801223755, -0.49107223749160767
232, 274755876, -0.18010033667087555, 0.17665888369083405, 23.48870277404785, -0.030154580250382423, -0.019840797409415245, 9.825411796569824, -0.16997867822647095, -0.2723270058631897, -0.4781506657600403
233, 274772543, -0.18097668886184692, 0.17759102582931519, 23.487586975097656, -0.031173978000879288, -0.06357090175151825, 9.77525520324707, -0.14663910865783691, -0.19678877294063568, -0.4407625198364258
234, 274789210, -0.18217900395393372, 0.17877088487148285, 23.483884811401367, -0.03510380908846855, -0.046958912163972855, 9.779250144958496, -0.1651826947927475, -0.18107537925243378, -0.5283322930335999
235, 274805877, -0.18164843320846558, 0.17908859252929688, 23.483060836791992, -0.03619479387998581, -0.05479107052087784, 9.789219856262207, -0.06058043614029884, -0.2328130304813385, -0.534312903881073
236, 274822544, -0.18116246163845062, 0.17958807945251465, 23.4862060546875, -0.049526821821928024, -0.048861466348171234, 9.793144226074219, -0.06184186041355133, -0.2237909436225891, -0.4234035015106201
237, 274839211, -0.1812712848186493, 0.17890746891498566, 23.484670639038086, -0.044090934097766876, -0.04567495733499527, 9.779414176940918, -0.09706572443246841, -0.2939121127128601, -0.44511672854423523
238, 274855878, -0.18132002651691437, 0.17734631896018982, 23.482797622680664, -0.04738832265138626, -0.04180943965911865, 9.779536247253418, -0.09351836144924164, -0.34739142656326294, -0.45459339022636414
239, 274872545, -0.1809283047914505, 0.17708134651184082, 23.48431396484375, -0.02098160795867443, -0.021013794466853142, 9.783262252807617, -0.06618320941925049, -0.2701883614063263, -0.44262585043907166
240, 274889212, -0.18097655475139618, 0.17631812393665314, 23.483043670654297, -0.005743389017879963, -0.02691096067428589, 9.809554100036621, -0.09406904131174088, -0.29986709356307983, -0.43859830498695374
241, 274905879, -0.18113330006599426, 0.17864112555980682, 23.483129501342773, 0.00761744100600481, -0.040750738233327866, 9.822908401489258, -0.10019047558307648, -0.11320172995328903, -0.4386751055717468
242, 274922546, -0.1816425919532776, 0.1808045208454132, 23.48313331604004, -0.01998027041554451, -0.04645135626196861, 9.778277397155762, -0.12068062275648117, -0.12151303887367249, -0.48868387937545776
243, 274939213, -0.18122778832912445, 0.18162834644317627, 23.482463836669922, -0.03293686732649803, -0.0436762198805809, 9.790392875671387, -0.06508186459541321, -0.2009444236755371, -0.48393914103507996
244, 274955880, -0.18168982863426208, 0.18216963112354279, 23.48342514038086, -0.055942609906196594, -0.05686527118086815, 9.786795616149902, -0.11699240654706955, -0.21854674816131592, -0.4911426305770874
245, 274972547, -0.18132571876049042, 0.18178676068782806, 23.48180389404297, -0.06579864025115967, -0.04413397237658501, 9.790807723999023, -0.06608715653419495, -0.2735884189605713, -0.5288573503494263
246, 274989214, -0.1819063425064087, 0.1808166652917862, 23.482149124145508, -0.047195207327604294, -0.03133830428123474, 9.777078628540039, -0.12397187203168869, -0.31171295046806335, -0.39829668402671814
247, 275005881, -0.18016885221004486, 0.17793521285057068, 23.48074722290039, -0.0386158712208271, -0.04030438885092735, 9.801568984985352, 0.01630888693034649, -0.4264642298221588, -0.45431798696517944
248, 275022548, -0.17932182550430298, 0.1767089068889618, 23.47882652282715, -0.006952101364731789, -0.023380855098366737, 9.804229736328125, -0.03801564499735832, -0.32678601145744324, -0.435076504945755
249, 275039215, -0.17845997214317322, 0.17727729678153992, 23.47769546508789, -0.0036298504564911127, -0.034735701978206635, 9.799433708190918, -0.036767031997442245, -0.21863001585006714, -0.5187340378761292
250, 275055882, -0.41548952460289, 0.09350275248289108, 23.43571662902832, -0.4387780427932739, 0.6233198046684265, 10.3055419921875, -14.303399085998535, -5.26399040222168, -3.0980634689331055
251, 275072549, -0.41206398606300354, -0.0257023386657238, 24.27098274230957, -0.8345900774002075, 3.1166739463806152, 9.23691463470459, 0.05782117322087288, -7.782256126403809, 49.50121307373047
252, 275089216, -0.4169079661369324, 0.0500149130821228, 24.867136001586914, -2.1330792903900146, 1.613595962524414, 9.757284164428711, -0.5532048344612122, 3.97969388961792, 35.601619720458984
253, 275105883, -0.3985626697540283, 0.07949367165565491, 25.299772262573242, -0.35084620118141174, 0.6860132813453674, 9.985108375549316, 0.7456386089324951, 1.1927093267440796, 25.643571853637695
254, 275122550, -0.4134654402732849, -0.028329210355877876, 26.08710479736328, -0.25969719886779785, -0.398785263299942, 9.795432090759277, -1.272308349609375, -7.208457946777344, 47.38937759399414
255, 275139217, -0.44924357533454895, -0.06346619874238968, 27.0367488861084, -0.10925454646348953, 0.6913994550704956, 10.048175811767578, -2.4418537616729736, -2.9505786895751953, 57.439918518066406
256, 275155884, -0.5604533553123474, -0.01662098616361618, 27.978702545166016, 0.7256810665130615, 0.71261066198349, 9.491939544677734, -7.005871772766113, 1.9005420207977295, 56.785587310791016
257, 275172551, -0.5916393995285034, 0.001323322532698512, 29.100631713867188, 1.3518681526184082, 0.3913746178150177, 9.863465309143066, -2.2671382427215576, 0.02758532017469406, 67.30790710449219
258, 275189218, -0.6071262359619141, -0.05100571736693382, 30.12547492980957, 0.11792976409196854, -0.7388022541999817, 9.816473007202148, -1.3247641324996948, -4.090267658233643, 61.29280090332031
259, 275205885, -0.5754488110542297, -0.12496822327375412, 31.233638763427734, -0.7751867175102234, -0.27420246601104736, 9.996397972106934, 1.609001874923706, -5.420621395111084, 66.29927062988281
260, 275222552, -0.5183343291282654, -0.12766070663928986, 32.16847610473633, -0.921854555606842, 0.5880760550498962, 9.425168991088867, 3.167391061782837, -1.021131992340088, 55.950740814208984
261, 275239219, -0.5193948149681091, -0.14334164559841156, 33.16575241088867, -1.2859736680984497, 0.4839625060558319, 9.931127548217773, -0.3309522569179535, -1.8403788805007935, 59.70200729370117
262, 275255886, -0.5338048934936523, -0.11858614534139633, 34.440616607666016, -0.5812749266624451, 0.5740506052970886, 9.9871244430542, -1.1210845708847046, 0.3784097731113434, 76.37815856933594
263, 275272553, -0.5686897039413452, -0.055765967816114426, 35.80172348022461, -0.06888414174318314, 0.8752110600471497, 9.473921775817871, -2.4267513751983643, 2.563225269317627, 81.5628890991211
264, 275289220, -0.5903285145759583, -0.10069362819194794, 37.151702880859375, -0.10581214725971222, 0.7996695041656494, 9.956899642944336, -1.68314528465271, -3.9273433685302734, 80.81761169433594
265, 275305887, -0.553034245967865, -0.16514109075069427, 38.586265563964844, -0.3488801121711731, -0.16335533559322357, 10.113298416137695, 1.90645432472229, -5.1312479972839355, 85.89393615722656
266, 275322554, -0.5841143727302551, -0.11579520255327225, 39.977935791015625, -0.6146842241287231, -0.21876302361488342, 9.55681324005127, -2.185706853866577, 1.7207673788070679, 83.36629486083984
267, 275339221, -0.6017494797706604, -0.13845039904117584, 41.564727783203125, -0.7472853660583496, 0.010768215171992779, 9.52962875366211, -1.3660774230957031, -2.768148422241211, 95.00141906738281
268, 275355888, -0.5683051943778992, -0.14183959364891052, 43.005699157714844, -0.5070396661758423, 0.4454265832901001, 10.058106422424316, 1.6944524049758911, -1.5260510444641113, 86.00524139404297
269, 275372555, -0.5661657452583313, -0.06922831386327744, 44.49221420288086, -0.6835610866546631, 0.11092373728752136, 9.889168739318848, -0.2514660656452179, 3.02455997467041, 88.78414154052734
270, 275389222, -0.49790868163108826, -0.2101614624261856, 46.17947006225586, -0.6628075242042542, 0.29875877499580383, 9.722549438476562, 3.7899324893951416, -9.858626365661621, 100.70518493652344
271, 275405889, -0.5422919988632202, -0.14882627129554749, 47.82350540161133, -0.4432229697704315, 0.5119309425354004, 10.06092357635498, -2.920363187789917, 2.3073856830596924, 98.22603607177734
272, 275422556, -0.530995786190033, -0.09246112406253815, 49.516685485839844, -0.6336379647254944, -0.10643213987350464, 9.712450981140137, 0.3026377558708191, 1.9490687847137451, 101.16990661621094
273, 275439223, -0.5740460753440857, -0.07071377336978912, 51.27241516113281, -0.6073145270347595, 0.23913374543190002, 9.75296401977539, -3.0210137367248535, -0.20190633833408356, 104.90376281738281
274, 275455890, -0.601828932762146, -0.07245523482561111, 53.15380859375, -0.3393101990222931, 0.06683499366044998, 9.705107688903809, -2.1270179748535156, -1.7616751194000244, 112.42921447753906
275, 275472557, -0.6419671177864075, -0.06351858377456665, 55.10360336303711, -0.054980017244815826, 0.4205753207206726, 9.81110954284668, -2.877154588699341, -1.2282068729400635, 116.53755950927734
276, 275489224, -0.6420689225196838, -0.082694411277771, 57.14378356933594, 0.4232892096042633, 0.020522622391581535, 10.029549598693848, -0.47783640027046204, -3.002561330795288, 121.94249725341797
277, 275505891, -0.6915159225463867, -0.023865163326263428, 59.412967681884766, 0.6622912287712097, -0.22980384528636932, 9.796680450439453, -3.471674919128418, 1.4990293979644775, 135.73489379882812
278, 275522558, -0.5811689496040344, 0.010615848936140537, 61.68223190307617, 0.8497599959373474, -1.3177262544631958, 9.58007526397705, 6.009797096252441, 0.1554279774427414, 135.72210693359375
279, 275539225, -0.45805975794792175, 0.10934323072433472, 63.845664978027344, 0.14185768365859985, -1.7308993339538574, 9.703577995300293, 6.671785831451416, 4.393529891967773, 129.4075469970703
280, 275555892, -0.34777772426605225, 0.17887650430202484, 65.71880340576172, -1.269895315170288, -1.4962674379348755, 9.812424659729004, 5.821230888366699, 3.04852032661438, 111.96808624267578
281, 275572559, -0.18864402174949646, 0.19253452122211456, 67.64505767822266, -1.7646631002426147, 0.5888211131095886, 9.800742149353027, 8.71657943725586, -0.08740104734897614, 115.13087463378906
282, 275589226, -0.19780640304088593, 0.21205176413059235, 69.53302764892578, -2.0271809101104736, 1.7053042650222778, 9.863165855407715, -1.425577163696289, 0.3680005669593811, 112.83403015136719
283, 275605893, -0.1422526240348816, 0.17867159843444824, 71.3976821899414, -0.9651275873184204, 0.8842072486877441, 9.62905502319336, 2.414602041244507, -2.8171043395996094, 111.4228286743164
284, 275622560, -0.13984043896198273, 0.23183855414390564, 73.32799530029297, -0.21728289127349854, -0.43383949995040894, 9.91788101196289, -0.8395533561706543, 2.4018795490264893, 115.37883758544922
285, 275639227, -0.08661725372076035, 0.18136891722679138, 75.29166412353516, 0.8486558198928833, -1.1453015804290771, 9.705453872680664, 2.2142226696014404, -3.755279064178467, 117.36453247070312
286, 275655894, -0.003491707146167755, 0.16348472237586975, 77.37455749511719, 0.6964086890220642, -1.385701060295105, 9.935556411743164, 4.097820281982422, -1.6178953647613525, 124.52421569824219
287, 275672561, 0.008993848226964474, 0.17587175965309143, 79.4689712524414, 0.4530739486217499, -0.6837906241416931, 9.760051727294922, -0.0867357924580574, 0.34312668442726135, 125.21719360351562
288, 275689228, 0.07191308587789536, 0.13763363659381866, 81.54220581054688, -0.10339675843715668, -0.27393218874931335, 9.723033905029297, 2.9961819648742676, -2.5843911170959473, 123.94900512695312
289, 275705895, 0.10164155811071396, 0.10354340076446533, 83.5809097290039, -0.4468269944190979, 0.06112973764538765, 10.025772094726562, 1.1002509593963623, -2.229951858520508, 121.87747192382812
290, 275722562, 0.06787102669477463, 0.18960733711719513, 85.58766174316406, -0.6113803386688232, -0.2609378397464752, 9.694344520568848, -2.7588138580322266, 4.966107368469238, 119.95086669921875
291, 275739229, 0.1414993852376938, 0.12532517313957214, 87.61595916748047, -0.5672708749771118, 0.02050267718732357, 9.540148735046387, 3.6710031032562256, -4.020806789398193, 121.25595092773438
292, 275755896, 0.16160038113594055, 0.15738002955913544, 89.59947204589844, -0.5340784788131714, -0.0791400671005249, 9.955973625183105, 0.5024307370185852, 1.841759443283081, 118.55953216552734
293, 275772563, 0.05811893939971924, 0.13424035906791687, 91.47601318359375, -0.3013647794723511, -0.021712660789489746, 10.040767669677734, -6.898491859436035, -1.5770888328552246, 112.14717102050781
294, 275789230, 0.09415540099143982, 0.14538784325122833, 93.446533203125, -0.1725144237279892, -0.6107409000396729, 9.86462116241455, 1.473557710647583, 0.42132386565208435, 117.7839126586914
295, 275805897, 0.13996778428554535, 0.12891125679016113, 95.31730651855469, -0.2443949282169342, -0.4685782194137573, 9.561793327331543, 2.1022164821624756, -1.160402536392212, 111.8019027709961
296, 275822564, 0.11902258545160294, 0.11918481439352036, 97.12761688232422, -0.6128470301628113, 0.048350557684898376, 9.702388763427734, -1.850510597229004, -0.7376313805580139, 108.17232513427734
297, 275839231, 0.12031470239162445, 0.1576104611158371, 99.00808715820312, -0.38808292150497437, 0.662866473197937, 9.81314754486084, -0.5530988574028015, 2.1284971237182617, 112.37877655029297
298, 275855898, 0.08153249323368073, 0.18406091630458832, 100.82746887207031, -0.21409578621387482, 0.8903310894966125, 9.860227584838867, -3.029372215270996, 1.3606418371200562, 108.7134780883789
299, 275872565, 0.07801050692796707, 0.17153425514698029, 102.5903091430664, -0.4135051667690277, 0.311887264251709, 10.018960952758789, -0.943243682384491, -1.022351622581482, 105.32317352294922
300, 275889232, 0.09683719277381897, 0.17452295124530792, 104.38543701171875, -0.7209045886993408, 0.07317733764648438, 9.762750625610352, 0.39306843280792236, -0.07953706383705139, 107.26119232177734
301, 275905899, 0.08649058640003204, 0.15141308307647705, 105.99516296386719, -0.5749822854995728, -0.5552707314491272, 9.519482612609863, -1.3037737607955933, -1.669189214706421, 96.13764953613281
302, 275922566, 0.09935151040554047, 0.15052537620067596, 107.47866821289062, -0.4724215567111969, -1.1032023429870605, 9.760641098022461, 0.15013298392295837, -0.35521313548088074, 88.56382751464844
303, 275939233, 0.08616489171981812, 0.180928573012352, 108.77156829833984, -0.44363340735435486, -0.9305179715156555, 9.864079475402832, -1.3637317419052124, 1.4991168975830078, 77.12459564208984
304, 275955900, 0.14755584299564362, 0.1631709784269333, 110.00679779052734, -0.16937831044197083, -0.6980648636817932, 9.926560401916504, 3.144416093826294, -1.369185209274292, 73.66981506347656
305, 275972567, 0.09563722461462021, 0.14544503390789032, 111.13932800292969, 0.08949386328458786, -0.7462444305419922, 9.896994590759277, -3.5896968841552734, -1.3723313808441162, 67.50807189941406
306, 275989234, 0.12563008069992065, 0.144936203956604, 112.27702331542969, -0.5427210927009583, -0.24845807254314423, 9.729109764099121, 1.3580200672149658, -0.3406864106655121, 67.81503295898438
307, 276005901, 0.1266281008720398, 0.1292962282896042, 113.22283172607422, -0.5333007574081421, 0.23492920398712158, 9.746461868286133, -0.33256539702415466, -1.266798973083496, 56.30632781982422
308, 276022568, 0.1726904958486557, 0.11669152975082397, 114.032958984375, -0.9806111454963684, 0.5083410739898682, 9.606175422668457, 2.3984055519104004, -1.0954961776733398, 48.163448333740234
309, 276039235, 0.16122029721736908, 0.11187425255775452, 114.76704406738281, -0.45173436403274536, 0.6371404528617859, 9.885173797607422, -1.0475856065750122, -0.6533779501914978, 43.601341247558594
310, 276055902, 0.14843052625656128, 0.13346803188323975, 115.44926452636719, -0.4440746009349823, 0.17748229205608368, 10.04393482208252, -1.1414299011230469, 0.9031729102134705, 40.485660552978516
311, 276072569, 0.15907524526119232, 0.15287095308303833, 116.23304748535156, 0.32265570759773254, -0.451642245054245, 10.019433975219727, 0.23435795307159424, 0.7784654498100281, 46.57769775390625
312, 276089236, 0.1921563595533371, 0.12699326872825623, 117.12419128417969, 0.7921691536903381, -1.029189944267273, 9.39151382446289, 1.5809338092803955, -1.8841336965560913, 53.02878952026367
313, 276105903, 0.18600696325302124, 0.14612101018428802, 118.14798736572266, 0.4606746435165405, -0.7557780146598816, 9.949296951293945, -0.7600731253623962, 0.8871074318885803, 60.977027893066406
314, 276122570, 0.21463806927204132, 0.15549063682556152, 119.19651794433594, 0.08266865462064743, -0.7036458253860474, 9.645174980163574, 1.3284592628479004, 0.3396674394607544, 62.46513366699219
315, 276139237, 0.2350727766752243, 0.148053839802742, 120.17033386230469, -0.530839741230011, -0.18950922787189484, 9.809504508972168, 0.869356632232666, -0.6501540541648865, 57.985111236572266
316, 276155904, 0.18554653227329254, 0.14861395955085754, 121.05628204345703, -0.1606372445821762, -0.04208562150597572, 10.13457202911377, -3.3033857345581055, -0.21520644426345825, 52.710689544677734
317, 276172571, 0.17255043983459473, 0.15980353951454163, 121.83989715576172, -0.059980638325214386, -0.7285428643226624, 9.638542175292969, -1.0975189208984375, 0.37270602583885193, 46.5701789855957
318, 276189238, 0.09707608819007874, 0.2303735613822937, 122.76792907714844, 0.5977298617362976, -1.3383681774139404, 9.673436164855957, -4.8881916999816895, 3.9253809452056885, 55.22652816772461
319, 276205905, 0.10961602628231049, 0.1737397313117981, 123.71786499023438, 0.9881798624992371, -1.3133946657180786, 9.852486610412598, 0.41637754440307617, -3.709625244140625, 56.55876922607422
320, 276222572, 0.11837713420391083, 0.17872868478298187, 124.6721420288086, 0.42266833782196045, -1.6314737796783447, 9.947149276733398, 0.24520598351955414, 0.032861463725566864, 56.81066131591797
321, 276239239, 0.10976172983646393, 0.1790282279253006, 125.64140319824219, 0.10715790838003159, -1.2203530073165894, 9.827452659606934, -0.7614552974700928, -0.2270016372203827, 57.70924758911133
322, 276255906, 0.12258876860141754, 0.2015501856803894, 126.39065551757812, -0.2785112261772156, -1.0920439958572388, 9.724072456359863, 0.5882638096809387, 1.090916633605957, 44.508575439453125
323, 276272573, 0.06444455683231354, 0.26016154885292053, 127.10659790039062, -0.05935261771082878, 0.056506238877773285, 9.957672119140625, -3.665616989135742, 3.233086109161377, 42.50627136230469
324, 276289240, 0.01501294132322073, 0.28422579169273376, 127.61917877197266, -0.03776013106107712, -0.47490912675857544, 9.752469062805176, -3.1191694736480713, 1.1108391284942627, 30.30963706970215
325, 276305907, -0.021617481485009193, 0.2666432559490204, 128.23931884765625, 0.21910955011844635, -0.7981845736503601, 9.752455711364746, -2.3748273849487305, -1.4086476564407349, 36.76456832885742
326, 276322574, 0.02121536247432232, 0.2523730993270874, 128.6791534423828, -0.025017358362674713, -1.1341038942337036, 9.889084815979004, 2.469172716140747, -1.1972237825393677, 25.945716857910156
327, 276339241, 0.015693476423621178, 0.19995903968811035, 129.11598205566406, -0.07105911523103714, -1.094773292541504, 9.84521198272705, -0.3896533250808716, -3.47170090675354, 25.767345428466797
328, 276355908, -0.050525568425655365, 0.27141350507736206, 129.23020935058594, -0.44673866033554077, -0.7895163297653198, 9.733561515808105, -3.932671070098877, 3.9550116062164307, 6.4115519523620605
329, 276372575, -0.04407089948654175, 0.2571088969707489, 129.14134216308594, -0.3854476809501648, -0.11294536292552948, 9.813263893127441, 0.49803897738456726, -1.18892240524292, -5.776233673095703
330, 276389242, -0.062173712998628616, 0.2835054099559784, 128.98541259765625, 0.3270321786403656, -0.3289529085159302, 9.755603790283203, -0.9551554322242737, 1.2515778541564941, -9.796597480773926
331, 276405909, -0.08678095787763596, 0.2903647720813751, 129.00892639160156, 0.4972396790981293, -0.5729827880859375, 9.801011085510254, -1.3946306705474854, 0.08219114691019058, 0.9694662690162659
332, 276422576, -0.09459139406681061, 0.3357275426387787, 129.06072998046875, 0.08703846484422684, -0.07506648451089859, 9.82261848449707, -0.3900109827518463, 2.4063005447387695, 2.668766498565674
333, 276439243, -0.10630307346582413, 0.38874760270118713, 129.0066680908203, -0.13930250704288483, 0.19061356782913208, 9.72708511352539, -0.5897004008293152, 2.8817362785339355, -3.6807949542999268
334, 276455910, -0.08509720116853714, 0.33240807056427, 128.96914672851562, -0.1589454710483551, 0.32209905982017517, 9.767953872680664, 1.3696393966674805, -3.682896137237549, -2.697805404663086
335, 276472577, -0.08341114223003387, 0.31523218750953674, 128.87176513671875, -0.09690417349338531, 0.1596956104040146, 9.882925033569336, 0.20575964450836182, -1.3302148580551147, -6.286989688873291
336, 276489244, -0.09519635885953903, 0.3481038212776184, 128.76856994628906, 0.08365768194198608, -0.14059093594551086, 9.79356575012207, -0.6073348522186279, 1.6736878156661987, -6.6313276290893555
337, 276505911, -0.11276054382324219, 0.3470425009727478, 128.80575561523438, 0.3991697430610657, -0.3458612561225891, 9.725132942199707, -1.0048693418502808, -0.37058374285697937, 1.7884578704833984
338, 276522578, -0.11723790317773819, 0.3709031939506531, 128.99954223632812, 0.7345260977745056, 0.02245742827653885, 9.899145126342773, -0.27695661783218384, 1.1178796291351318, 11.186261177062988
339, 276539245, -0.1128992810845375, 0.5338853597640991, 129.2426300048828, 0.874262273311615, -1.774981141090393, 9.953645706176758, 0.20076534152030945, 9.477822303771973, 14.161606788635254
340, 276555912, -0.17074531316757202, 0.7193097472190857, 129.87051391601562, 0.08074595034122467, -0.00472638476639986, 9.77821159362793, -3.7945480346679688, 10.789508819580078, 37.25727462768555
341, 276572579, -0.20179533958435059, 0.8175565004348755, 130.4998016357422, 0.5219013094902039, -0.13836903870105743, 9.656288146972656, -2.2864766120910645, 5.530911445617676, 37.33036804199219
342, 276589246, -0.2774451971054077, 0.8137500882148743, 131.03018188476562, 0.07557094097137451, -0.09984906762838364, 9.847027778625488, -4.914165496826172, -0.588793158531189, 31.377944946289062
343, 276605913, -0.3644045889377594, 0.8366596698760986, 131.4459228515625, -0.5812315344810486, 0.5693497061729431, 9.851079940795898, -5.501972198486328, 1.0105257034301758, 24.50832176208496
344, 276622580, -0.4800945222377777, 0.7989473938941956, 131.82211303710938, -0.37145230174064636, 0.4334164261817932, 9.75206470489502, -7.203938007354736, -2.667343854904175, 22.110692977905273
345, 276639247, -0.9590960144996643, 0.7264288663864136, 132.40455627441406, -0.023317785933613777, 0.035994965583086014, 11.150742530822754, -29.158754348754883, -5.035923004150391, 34.44450378417969
346, 276655914, -1.7319620847702026, 0.35602709650993347, 132.95016479492188, -0.2096693515777588, -0.947433590888977, 10.738741874694824, -46.640846252441406, -23.232786178588867, 31.76321792602539
347, 276672581, -1.7370193004608154, -0.09265466034412384, 133.65692138671875, -0.6166272163391113, -0.7656645774841309, 11.01447582244873, -0.35000699758529663, -28.438701629638672, 41.12836456298828
348, 276689248, -1.6636114120483398, -0.12174229323863983, 134.53216552734375, -0.41146257519721985, -0.22503262758255005, 10.535343170166016, 4.561371326446533, -3.5625367164611816, 51.995155334472656
349, 276705915, -1.5275086164474487, -0.2345113456249237, 135.0912322998047, 0.2638774812221527, -0.5936371684074402, 10.491990089416504, 8.326441764831543, -7.968471050262451, 32.89917755126953
350, 276722582, -1.322352409362793, -0.37901684641838074, 135.22247314453125, 0.03535257652401924, -0.11946918070316315, 10.578495025634766, 12.409530639648438, -9.128751754760742, 7.211634159088135
351, 276739249, -0.9718796610832214, -0.7086874842643738, 135.37139892578125, -0.6415563821792603, -0.13868403434753418, 10.358448028564453, 21.16356086730957, -20.22054100036621, 8.091296195983887
352, 276755916, -0.7161577939987183, -0.8475071787834167, 135.38055419921875, -0.3790759742259979, -0.3845839202404022, 10.753125190734863, 15.400331497192383, -8.61712646484375, -0.02016361989080906
353, 276772583, -0.6027613878250122, -0.9014098644256592, 135.3896942138672, -0.24871020019054413, 0.14782065153121948, 10.490811347961426, 6.86663818359375, -3.529949426651001, 0.0660039409995079
354, 276789250, -0.5237675905227661, -0.8022816181182861, 135.5209197998047, -0.31279343366622925, 0.3925377428531647, 10.140302658081055, 4.9030656814575195, 5.571916103363037, 7.483354091644287
355, 276805917, -0.6460326910018921, -0.6243880391120911, 135.9055633544922, 0.21253666281700134, 0.33465030789375305, 10.354934692382812, -7.01203727722168, 10.12802791595459, 22.737714767456055
356, 276822584, -1.0352097749710083, -0.3364729583263397, 136.30035400390625, 0.3927510976791382, 0.10454528033733368, 10.187546730041504, -23.12757682800293, 16.61620330810547, 23.49160385131836
357, 276839251, -1.601452350616455, 0.04931877553462982, 136.41436767578125, 0.3635035455226898, 0.06903908401727676, 9.86371898651123, -33.94217300415039, 22.67983627319336, 6.926675796508789
358, 276855918, -1.941093921661377, 0.20235112309455872, 136.39920043945312, 0.2191542237997055, -0.5037438869476318, 9.979524612426758, -20.370948791503906, 8.907983779907227, -1.0681730508804321
359, 276872585, -2.163862943649292, -0.07908011227846146, 136.26988220214844, -0.01437545195221901, -0.535804033279419, 10.21665096282959, -13.35313606262207, -16.88791275024414, -8.803633689880371
360, 276889252, -2.287982225418091, -0.3557358384132385, 135.95889282226562, -0.3551104664802551, -0.2641165554523468, 10.109024047851562, -7.511717319488525, -16.149917602539062, -19.73489761352539
361, 276905919, -2.2701539993286133, -0.5498905777931213, 135.69049072265625, -0.08794151246547699, -0.24500218033790588, 9.855568885803223, 0.945442795753479, -11.294388771057129, -16.99884605407715
362, 276922586, -2.247282028198242, -0.6935867071151733, 135.68165588378906, 0.6015799641609192, -0.17303283512592316, 10.07734489440918, 1.3650933504104614, -8.891572952270508, -1.314719557762146
363, 276939253, -2.412264108657837, -0.8640587329864502, 135.85362243652344, 0.459561288356781, 0.05724059417843819, 9.963282585144043, -9.76919937133789, -10.927700996398926, 9.44624137878418
364, 276955920, -2.6695358753204346, -1.129387617111206, 135.96969604492188, 0.2662280201911926, -0.4234871566295624, 9.949283599853516, -15.337586402893066, -16.496129989624023, 5.805066108703613
365, 276972587, -3.0080809593200684, -1.4761537313461304, 135.91497802734375, 0.5919691920280457, -0.7288576364517212, 9.91126823425293, -20.412277221679688, -20.899560928344727, -4.756158828735352
366, 276989254, -3.372459650039673, -1.8743281364440918, 135.861328125, 0.4133029282093048, -0.40896424651145935, 9.749804496765137, -21.980857849121094, -23.947126388549805, -4.9883294105529785
367, 277005921, -3.6968834400177, -2.2442941665649414, 135.86300659179688, 0.48986294865608215, -0.5348565578460693, 9.784485816955566, -19.49101448059082, -22.43251609802246, -1.7163188457489014
368, 277022588, -3.966806650161743, -2.6488473415374756, 135.85350036621094, 0.8258821964263916, -0.7704694271087646, 10.006369590759277, -16.25307846069336, -24.448579788208008, -2.6380455493927
369, 277039255, -4.284283638000488, -3.2053239345550537, 135.80184936523438, 0.7513545751571655, -0.7618635296821594, 10.187832832336426, -19.24158477783203, -33.33901596069336, -5.936613082885742
370, 277055922, -4.552854537963867, -3.931743860244751, 135.59762573242188, 0.5290440320968628, -1.0753896236419678, 9.824275016784668, -16.914480209350586, -42.76814270019531, -15.999639511108398
371, 277072589, -4.590717792510986, -4.6677703857421875, 135.56646728515625, 0.6792083978652954, -0.9042790532112122, 9.743295669555664, -2.44594669342041, -44.12701416015625, -5.827986240386963
372, 277089256, -4.6851654052734375, -5.264621734619141, 135.5939483642578, 0.5128695964813232, -0.9745230674743652, 9.926254272460938, -5.557936191558838, -36.080692291259766, -1.710430383682251
373, 277105923, -4.86441707611084, -5.8969502449035645, 135.6282196044922, 0.8684101104736328, -0.6935812830924988, 9.777341842651367, -10.585551261901855, -38.23765182495117, -1.5725451707839966
374, 277122590, -5.02554988861084, -6.788674354553223, 135.77914428710938, 1.310563087463379, -0.6877110600471497, 9.744388580322266, -8.701899528503418, -54.34038162231445, 3.900932788848877
375, 277139257, -5.147335529327393, -7.9222612380981445, 135.95347595214844, 1.5533556938171387, -0.9613015055656433, 9.725767135620117, -6.007796764373779, -68.92481231689453, 3.846644401550293
376, 277155924, -5.335192680358887, -9.253618240356445, 136.14675903320312, 1.5434569120407104, -0.8264350891113281, 9.778276443481445, -9.580519676208496, -80.84600067138672, 3.665787696838379
377, 277172591, -5.76788330078125, -10.69340705871582, 136.35569763183594, 1.3683512210845947, -0.9586590528488159, 9.423989295959473, -23.833904266357422, -87.4271011352539, 3.4742841720581055
378, 277189258, -6.206395626068115, -12.057311058044434, 136.60403442382812, 1.6559698581695557, -1.2161145210266113, 9.09419059753418, -23.415149688720703, -83.16616821289062, 5.53143835067749
379, 277205925, -6.538209915161133, -13.218635559082031, 136.845703125, 2.0814316272735596, -1.2599139213562012, 8.854351043701172, -16.776702880859375, -71.0757827758789, 5.8638691902160645
380, 277222592, -6.86713981628418, -14.384822845458984, 137.1802215576172, 2.5688302516937256, -1.2395269870758057, 8.70762825012207, -14.986249923706055, -72.02190399169922, 10.725717544555664
381, 277239259, -7.250710964202881, -15.679438591003418, 137.60195922851562, 2.603227138519287, -1.2342990636825562, 8.581690788269043, -16.490686416625977, -80.33798217773438, 14.239625930786133
382, 277255926, -7.537766933441162, -16.943716049194336, 138.0120849609375, 2.9383902549743652, -1.5355923175811768, 8.769753456115723, -10.352381706237793, -78.50597381591797, 13.188751220703125
383, 277272593, -7.765369415283203, -18.020421981811523, 138.38050842285156, 3.0107645988464355, -1.4214708805084229, 8.62386417388916, -7.053910732269287, -67.06898498535156, 11.824206352233887
384, 277289260, -7.994208812713623, -18.82315444946289, 138.65496826171875, 3.110459327697754, -1.3642832040786743, 8.525073051452637, -8.564179420471191, -50.08100509643555, 8.400531768798828
385, 277305927, -8.219403266906738, -19.527969360351562, 138.7819061279297, 3.171156406402588, -1.4853445291519165, 8.420331001281738, -11.049107551574707, -43.10640335083008, 0.6836461424827576
386, 277322594, -8.411219596862793, -20.364051818847656, 138.8388214111328, 3.4044387340545654, -1.4825537204742432, 8.297758102416992, -10.380583763122559, -50.32292175292969, -4.553256511688232
387, 277339261, -8.605791091918945, -21.194204330444336, 138.94180297851562, 3.5891878604888916, -1.4434549808502197, 8.241842269897461, -9.520424842834473, -50.33037185668945, -2.131963014602661
388, 277355928, -8.799837112426758, -21.81587028503418, 139.0587615966797, 3.642977476119995, -1.74101984500885, 8.342026710510254, -9.108736991882324, -38.06654357910156, 0.3338888883590698
389, 277372595, -8.990518569946289, -22.109268188476562, 139.20716857910156, 3.926766872406006, -1.551619052886963, 8.08299446105957, -8.145919799804688, -18.872238159179688, 4.958408355712891
390, 277389262, -9.135859489440918, -22.254608154296875, 139.3060302734375, 4.061605930328369, -1.3740506172180176, 7.820679664611816, -6.516777992248535, -9.669114112854004, 3.5740623474121094
391, 277405929, -9.1668701171875, -22.45709800720215, 139.34158325195312, 4.338013172149658, -1.3576836585998535, 7.697579860687256, -1.0897248983383179, -12.490532875061035, -0.4578976333141327
392, 277422596, -9.170258522033691, -22.641054153442383, 139.41970825195312, 4.014045715332031, -1.2589683532714844, 7.702191352844238, 1.548749566078186, -11.752681732177734, 2.043740749359131
393, 277439263, -9.12476634979248, -22.737375259399414, 139.49166870117188, 4.007617950439453, -1.4724286794662476, 7.806314468383789, 4.34391450881958, -6.497130393981934, 2.5456085205078125
394, 277455930, -9.065500259399414, -22.770416259765625, 139.60867309570312, 4.071293830871582, -1.461659550666809, 7.812485218048096, 6.218751907348633, -3.129533052444458, 5.613113880157471
395, 277472597, -9.002387046813965, -22.74262809753418, 139.7494354248047, 3.966871976852417, -1.455032467842102, 7.8591227531433105, 7.000094413757324, 0.2836863696575165, 7.488887786865234
396, 277489264, -8.922654151916504, -22.689735412597656, 139.8347625732422, 4.095553398132324, -1.5808193683624268, 7.970607757568359, 6.704112529754639, 2.2673392295837402, 4.6940016746521
397, 277505931, -8.813239097595215, -22.63504409790039, 139.8870086669922, 4.127032279968262, -1.4861993789672852, 7.9614481925964355, 7.7158660888671875, 2.6727371215820312, 2.9004337787628174
398, 277522598, -8.676304817199707, -22.55780029296875, 139.9578857421875, 3.963627338409424, -1.355612874031067, 7.938048839569092, 9.79194450378418, 3.870515823364258, 4.122967720031738
399, 277539265, -8.52872085571289, -22.430706024169922, 139.99705505371094, 3.748274326324463, -1.2851343154907227, 7.9387946128845215, 9.6922607421875, 7.107489585876465, 2.8258121013641357
400, 277555932, -8.340301513671875, -22.223342895507812, 140.11114501953125, 3.8796098232269287, -1.4013340473175049, 7.9426774978637695, 13.841376304626465, 11.275313377380371, 7.628060340881348
401, 277572599, -8.096946716308594, -21.930192947387695, 140.2161102294922, 3.850900173187256, -1.3856762647628784, 7.863649845123291, 16.903369903564453, 16.476289749145508, 7.830511569976807
402, 277589266, -7.873857498168945, -21.62101173400879, 140.3917999267578, 3.8073742389678955, -1.1506062746047974, 8.26638412475586, 17.229347229003906, 16.92066192626953, 11.811005592346191
403, 277605933, -7.7455668449401855, -21.276220321655273, 140.5781707763672, 3.7921946048736572, -1.3526304960250854, 8.583504676818848, 11.717440605163574, 18.99390983581543, 12.664088249206543
404, 277622600, -7.6396613121032715, -20.882978439331055, 140.77951049804688, 3.4880714416503906, -1.4096423387527466, 8.582974433898926, 10.629631042480469, 21.789602279663086, 13.870160102844238
405, 277639267, -7.578354358673096, -20.45509910583496, 140.95101928710938, 3.564924716949463, -1.6528970003128052, 8.784613609313965, 7.240910053253174, 24.08812141418457, 12.483049392700195
406, 277655934, -7.590022087097168, -20.01626205444336, 141.1122589111328, 3.5078608989715576, -1.5359848737716675, 8.822670936584473, 2.581664562225342, 24.82069206237793, 12.012426376342773
407, 277672601, -7.569889545440674, -19.556333541870117, 141.24317932128906, 3.2138967514038086, -1.2279986143112183, 8.683135986328125, 3.80430269241333, 26.30156135559082, 10.505423545837402
408, 277689268, -7.535532474517822, -19.023452758789062, 141.4200897216797, 3.166147470474243, -1.223372459411621, 8.802558898925781, 5.504997253417969, 30.298187255859375, 13.67431354522705
409, 277705935, -7.462855339050293, -18.444515228271484, 141.60765075683594, 3.119961977005005, -1.3220738172531128, 8.943453788757324, 7.91035270690918, 32.96706771850586, 14.639469146728516
410, 277722602, -7.333822727203369, -17.873571395874023, 141.6046142578125, 3.1626603603363037, -1.2269742488861084, 8.909896850585938, 7.6204752922058105, 33.91086959838867, 3.779067277908325
411, 277739269, -7.164648056030273, -17.320348739624023, 141.56610107421875, 3.2864649295806885, -1.3268388509750366, 8.916157722473145, 9.38609504699707, 33.12456512451172, 1.544311285018921
412, 277755936, -6.895764350891113, -16.815580368041992, 141.44091796875, 3.2135021686553955, -1.5270503759384155, 9.059940338134766, 13.86053466796875, 30.860366821289062, -3.87825870513916
413, 277772603, -6.586975574493408, -16.34319496154785, 141.3333282470703, 3.095924139022827, -1.43096923828125, 9.12800121307373, 16.617687225341797, 28.80084800720215, -3.2763829231262207
414, 277789270, -6.343436241149902, -15.853879928588867, 141.38528442382812, 3.1651604175567627, -1.181037425994873, 9.228477478027344, 15.410913467407227, 28.766372680664062, 5.823172092437744
415, 277805937, -6.1620073318481445, -15.313728332519531, 141.57864379882812, 3.0477612018585205, -1.1434204578399658, 9.20838737487793, 13.93520450592041, 30.934507369995117, 14.178857803344727
416, 277822604, -6.045742034912109, -14.716008186340332, 141.8713836669922, 2.837636947631836, -0.8831626176834106, 9.244149208068848, 11.455900192260742, 33.794979095458984, 20.221757888793945
417, 277839271, -5.870713710784912, -14.093913078308105, 142.10711669921875, 2.3794100284576416, -0.9612040519714355, 9.363097190856934, 13.947775840759277, 35.64155960083008, 17.04123306274414
418, 277855938, -5.570076942443848, -13.496867179870605, 142.18653869628906, 2.057561159133911, -0.8462086915969849, 9.311823844909668, 19.099794387817383, 35.11995315551758, 7.7178168296813965
419, 277872605, -5.190483570098877, -12.878856658935547, 142.18019104003906, 2.1904773712158203, -0.7348329424858093, 9.381153106689453, 22.612409591674805, 36.88343811035156, 2.6494081020355225
420, 277889272, -4.788419723510742, -12.201722145080566, 142.18597412109375, 2.2303173542022705, -0.8152746558189392, 9.554920196533203, 24.118989944458008, 40.372989654541016, 3.4138283729553223
421, 277905939, -4.356978893280029, -11.383379936218262, 142.19374084472656, 1.8481234312057495, -0.7392322421073914, 9.790926933288574, 25.899662017822266, 48.83426284790039, 3.911344528198242
422, 277922606, -3.929860830307007, -10.347915649414062, 142.1334991455078, 1.317224144935608, -0.9388855695724487, 10.076349258422852, 24.861894607543945, 62.14358901977539, 0.48994019627571106
423, 277939273, -3.553264617919922, -9.172304153442383, 142.0044708251953, 1.3241134881973267, -0.7057138085365295, 10.189231872558594, 21.203472137451172, 70.79818725585938, -3.468993663787842
424, 277955940, -3.3095223903656006, -8.142557144165039, 141.93865966796875, 1.4288707971572876, -0.17723989486694336, 10.193495750427246, 13.950871467590332, 61.81394958496094, -0.6582493185997009
425, 277972607, -3.149015426635742, -7.523570537567139, 141.98809814453125, 1.1727039813995361, -0.21726089715957642, 10.197354316711426, 9.95040512084961, 36.81692123413086, 4.569316387176514
426, 277989274, -3.024384021759033, -7.075608253479004, 141.9872283935547, 1.148352861404419, -0.567240834236145, 10.349822998046875, 7.382112979888916, 26.737285614013672, 0.939732551574707
427, 278005941, -2.876655340194702, -6.549136161804199, 141.99786376953125, 0.7705528736114502, -0.40423721075057983, 10.335304260253906, 8.849425315856934, 31.406078338623047, 1.8027182817459106
428, 278022608, -2.769843339920044, -5.971447467803955, 141.91261291503906, 0.6738245487213135, -0.27502232789993286, 10.281578063964844, 5.76080846786499, 34.7544059753418, -3.825343608856201
429, 278039275, -2.690030336380005, -5.555355548858643, 141.84605407714844, 0.9482485055923462, -0.3964633047580719, 10.21551513671875, 4.2946319580078125, 25.003931045532227, -3.235358953475952
430, 278055942, -2.631913661956787, -5.2127861976623535, 141.83511352539062, 0.9873759746551514, -0.5561482310295105, 10.167095184326172, 3.330859661102295, 20.43724822998047, -0.152120441198349
431, 278072609, -2.5417137145996094, -4.875417232513428, 141.7678985595703, 0.7766063213348389, -0.7277605533599854, 10.240345001220703, 4.96209716796875, 20.2771053314209, -3.5531463623046875
432, 278089276, -2.364699602127075, -4.502218723297119, 141.6774139404297, 0.8100999593734741, -0.5448256134986877, 10.21177864074707, 10.083012580871582, 22.4753475189209, -4.900905132293701
433, 278105943, -2.129540205001831, -4.017786026000977, 141.4682159423828, 0.7983700037002563, -0.28836145997047424, 9.974180221557617, 13.083595275878906, 29.40590476989746, -11.822235107421875
434, 278122610, -1.7705529928207397, -3.4121978282928467, 141.19137573242188, 0.7257177829742432, 0.10728711634874344, 10.05284595489502, 20.365467071533203, 36.74943923950195, -15.782496452331543
435, 278139277, -1.368475317955017, -2.759573221206665, 140.908447265625, 0.5611209273338318, 0.032171640545129776, 10.140596389770508, 23.10575294494629, 39.47571563720703, -16.325239181518555
436, 278155944, -0.933982789516449, -2.003704071044922, 140.55140686035156, 0.473364919424057, 0.08963872492313385, 9.96508502960205, 25.06890106201172, 45.63935470581055, -20.94126319885254
437, 278172611, -0.5087864995002747, -1.1285680532455444, 140.27845764160156, 0.4779227077960968, 0.1695929914712906, 9.96273422241211, 24.94839859008789, 52.57390594482422, -16.16136932373047
438, 278189278, -0.12878936529159546, -0.15515945851802826, 140.05972290039062, 0.25569453835487366, 0.2778945863246918, 9.861199378967285, 22.530996322631836, 58.34111404418945, -13.249543190002441
439, 278205945, 0.060233619064092636, 0.8655010461807251, 139.89083862304688, 0.08129195868968964, 0.35480934381484985, 9.834688186645508, 11.277826309204102, 61.109458923339844, -10.547770500183105
440, 278222612, 0.14829610288143158, 1.6246403455734253, 140.1132049560547, 0.1561897099018097, 0.5363552570343018, 9.866371154785156, 4.862199783325195, 45.435001373291016, 12.804364204406738
441, 278239279, 0.2447093278169632, 2.063784122467041, 140.49200439453125, 0.11890565603971481, 0.07913210988044739, 9.53181266784668, 4.91385555267334, 26.289138793945312, 22.173458099365234
442, 278255946, 0.5264580845832825, 2.5536787509918213, 140.91014099121094, 0.4211024343967438, 0.009355833753943443, 9.404526710510254, 15.752354621887207, 29.42783546447754, 24.417234420776367
443, 278272613, 0.9249747395515442, 3.364640235900879, 141.43316650390625, -0.1186932623386383, 0.36131787300109863, 9.220221519470215, 22.14590835571289, 48.92362976074219, 30.26784324645996
444, 278289280, 0.12325359135866165, 1.4648844003677368, 141.36410522460938, -1.8147048950195312, -0.1463015377521515, 12.471193313598633, -48.071861267089844, -114.14176177978516, -3.550412654876709
445, 278305947, -0.4934927523136139, 0.08793552964925766, 140.86126708984375, -1.3514230251312256, -3.684016466140747, 12.011847496032715, -36.73487091064453, -82.6556167602539, -30.88530731201172
446, 278322614, -0.5136750936508179, 0.008903992362320423, 140.57521057128906, -0.14612825214862823, 0.29262277483940125, 10.189023971557617, -1.296035885810852, -4.725566864013672, -17.655370712280273
447, 278339281, -0.5461665987968445, -0.03905953839421272, 139.92208862304688, 0.32353076338768005, 0.5411977767944336, 9.873578071594238, -2.064798355102539, -2.6538937091827393, -39.662452697753906
448, 278355948, -0.5795135498046875, -0.03126585856080055, 139.4254913330078, 0.6044260859489441, -0.060039449483156204, 9.770273208618164, -2.1351394653320312, 0.6222497820854187, -30.24050521850586
449, 278372615, -0.6165192127227783, -0.04190083593130112, 139.25900268554688, 0.3612769842147827, -0.0016740714199841022, 9.85013198852539, -2.34657883644104, -0.6674992442131042, -10.444844245910645
450, 278389282, -0.640175461769104, -0.029925944283604622, 139.1621551513672, 0.16240960359573364, -0.07767325639724731, 9.748398780822754, -1.5467830896377563, 0.6520225405693054, -6.253373146057129
451, 278405949, -0.6390951871871948, -0.0441032312810421, 139.0886993408203, 0.075478196144104, -0.1673058718442917, 9.863834381103516, -0.06503704190254211, -0.9315147399902344, -4.867264747619629
452, 278422616, -0.6446597576141357, -0.038764212280511856, 138.96783447265625, 0.057935070246458054, -0.1487511694431305, 9.756024360656738, -0.4660551846027374, 0.2714178264141083, -7.697980880737305
453, 278439283, -0.6500710248947144, -0.05237528681755066, 138.93606567382812, 0.20866961777210236, -0.28620681166648865, 9.781571388244629, -0.4542604684829712, -0.9256494641304016, -2.3664023876190186
454, 278455950, -0.6495528221130371, -0.05678252503275871, 138.9415740966797, 0.09434392303228378, -0.12188787013292313, 9.792949676513672, -0.09648945182561874, -0.39710572361946106, -0.12242230772972107
455, 278472617, -0.645920991897583, -0.059691499918699265, 138.9488067626953, 0.10791205614805222, -0.1153469905257225, 9.785042762756348, 0.08826135098934174, -0.3082807958126068, -0.01837070845067501
456, 278489284, -0.6477780342102051, -0.0591951422393322, 138.94822692871094, 0.06398192793130875, -0.11732105910778046, 9.77890682220459, -0.2416878193616867, -0.09856406599283218, -0.48651960492134094
457, 278505951, -0.6501575112342834, -0.05770719423890114, 138.9542999267578, 0.13908202946186066, -0.12818562984466553, 9.81985855102539, -0.2748306393623352, -0.04435478895902634, -0.08408008515834808
458, 278522618, -0.6439346075057983, -0.05600285530090332, 139.16860961914062, 0.24672886729240417, -0.14450861513614655, 9.799695014953613, 0.2536555230617523, -0.1722647100687027, 12.408437728881836
459, 278539285, -0.644659161567688, -0.055356744676828384, 139.2711944580078, -0.08554642647504807, -0.11547250300645828, 9.791729927062988, -0.17138098180294037, -0.15813922882080078, 5.704166412353516
460, 278555952, -0.6482266187667847, -0.05823339894413948, 139.32339477539062, 0.12855125963687897, -0.14182934165000916, 9.802850723266602, -0.3453295826911926, -0.33758172392845154, 2.6792290210723877
461, 278572619, -0.651384711265564, -0.06139516457915306, 139.38116455078125, 0.05283638462424278, -0.0493728369474411, 9.768815994262695, -0.3212793171405792, -0.3585202097892761, 3.0140388011932373
462, 278589286, -0.6501723527908325, -0.04293624311685562, 139.475341796875, 0.18584944307804108, 0.14992374181747437, 9.789958953857422, -0.05901806429028511, 0.9131568074226379, 5.213004112243652
463, 278605953, -0.6451444625854492, -0.029439156875014305, 139.81629943847656, -0.1009802520275116, 0.4940894544124603, 9.779627799987793, 0.17419220507144928, 0.4474417269229889, 20.014612197875977
464, 278622620, -0.6496102809906006, -0.0817263200879097, 140.1446990966797, 0.17106273770332336, -0.1892341822385788, 10.240806579589844, -0.39495477080345154, -3.494825601577759, 19.217721939086914
465, 278639287, -0.6407138705253601, -0.02331824041903019, 140.511962890625, 0.5262537598609924, 0.6152026653289795, 9.456674575805664, 0.4077804684638977, 3.121117353439331, 21.623531341552734
466, 278655954, -0.6367253661155701, -0.0666651576757431, 141.0798797607422, -0.055526215583086014, 0.41843992471694946, 9.7256441116333, 0.11091624200344086, -3.114689588546753, 33.59315872192383
467, 278672621, -0.6406903862953186, -0.045875515788793564, 141.72100830078125, 0.1830500066280365, 0.519598126411438, 9.639912605285645, -0.3591366708278656, 0.680263876914978, 38.02888870239258
468, 278689288, -0.6202074885368347, -0.030150700360536575, 142.47076416015625, 0.34463009238243103, 0.6163402795791626, 10.344503402709961, 1.092658281326294, 0.3080461025238037, 44.54233169555664
469, 278705955, -0.5797840356826782, -0.024991383776068687, 143.2259063720703, -0.0016616126522421837, 0.4344712197780609, 9.703274726867676, 2.274141788482666, -0.30588820576667786, 44.85885238647461
470, 278722622, -0.604056715965271, -0.008012759499251842, 143.919921875, -0.2110806107521057, 0.9260444045066833, 9.557686805725098, -1.6212745904922485, 0.4438323378562927, 41.19978713989258
471, 278739289, -0.6285739541053772, -0.03946796432137489, 145.00115966796875, 0.5005760788917542, 0.8360075354576111, 10.254457473754883, -1.6291003227233887, -2.7361488342285156, 64.4002914428711
472, 278755956, -0.6577509641647339, 0.04517944157123566, 146.5105438232422, -0.04599172621965408, 0.9981567859649658, 9.608407020568848, -1.9497008323669434, 3.90981388092041, 90.16488647460938
473, 278772623, -0.6984507441520691, 0.006289430428296328, 147.9987030029297, -0.38819557428359985, 1.0269594192504883, 9.682071685791016, -2.6835110187530518, -3.546401023864746, 88.80581665039062
474, 278789290, -0.7033339738845825, 0.04194958508014679, 149.4654083251953, -0.2512687146663666, 0.5769172310829163, 9.618699073791504, -0.5402824878692627, 0.8972755670547485, 87.57360076904297
475, 278805957, -0.7330198884010315, 0.0818474069237709, 150.95123291015625, -0.21765711903572083, 0.6156870722770691, 10.042492866516113, -2.089970827102661, 1.1056926250457764, 88.72307586669922
476, 278822624, -0.752852201461792, 0.0662275180220604, 152.6891326904297, -0.08459782600402832, 0.8366920948028564, 9.82471752166748, -1.5414241552352905, -2.4644384384155273, 103.80376434326172
477, 278839291, -0.8146452903747559, 0.08007253706455231, 154.4768524169922, -0.33082541823387146, 0.36400341987609863, 9.804647445678711, -4.068120002746582, -0.8162519335746765, 106.81604766845703
478, 278855958, -0.899589478969574, 0.0583341121673584, 156.16757202148438, -0.35713860392570496, 0.593225359916687, 9.829567909240723, -5.443426132202148, -3.0047659873962402, 100.9658432006836
479, 278872625, -0.9745270013809204, 0.09608245640993118, 157.9295654296875, -0.5654422044754028, 0.11918886750936508, 9.87183952331543, -4.866584300994873, 0.3457849621772766, 105.29429626464844
480, 278889292, -1.0284706354141235, 0.0768761932849884, 159.67689514160156, -0.42934316396713257, 0.23271910846233368, 9.646225929260254, -3.6209747791290283, -3.17907452583313, 104.35741424560547
481, 278905959, -1.0521775484085083, 0.30769744515419006, 161.28378295898438, -0.7832513451576233, 0.4585837721824646, 9.841200828552246, -1.9731332063674927, 11.895597457885742, 96.20162963867188
482, 278922626, -1.0595108270645142, 0.44945910573005676, 163.0572967529297, -0.8596294522285461, 0.6299041509628296, 9.972474098205566, -1.371364951133728, 6.334554195404053, 106.10104370117188
483, 278939293, -1.0603773593902588, 0.5304818153381348, 165.0045928955078, -0.9601351618766785, 0.1219196543097496, 9.703510284423828, -1.281944990158081, 2.481746196746826, 116.45704650878906
484, 278955960, -1.1035534143447876, 0.630480170249939, 166.79653930664062, -1.3770838975906372, 0.0671134665608406, 9.717662811279297, -3.9093549251556396, 3.743473529815674, 107.15974426269531
485, 278972627, -1.1198407411575317, 0.7919026613235474, 168.3868865966797, -0.9082988500595093, 0.3686220645904541, 9.871684074401855, -2.386751413345337, 7.595280647277832, 95.13848876953125
486, 278989294, -1.1475549936294556, 0.8863645195960999, 170.0150146484375, -0.8533743023872375, -0.019838597625494003, 9.742314338684082, -3.3198182582855225, 3.489232301712036, 97.32510375976562
487, 279005961, -1.049736499786377, 1.279353141784668, 171.5183868408203, -0.8234606385231018, -0.4809114933013916, 9.815775871276855, 3.938673973083496, 21.593082427978516, 90.17761993408203
488, 279022628, -0.842664897441864, 1.8846989870071411, 172.67300415039062, -1.2186169624328613, -0.6368233561515808, 9.778226852416992, 10.290879249572754, 34.9166145324707, 69.3962173461914
489, 279039295, -0.6253631114959717, 2.557631731033325, 173.3145751953125, -1.1458336114883423, -1.033969759941101, 9.934638977050781, 11.334080696105957, 39.61954116821289, 38.535865783691406
490, 279055962, -0.57488614320755, 3.021148443222046, 173.4207000732422, -1.0740220546722412, -0.9085774421691895, 9.68647289276123, 2.51872181892395, 27.47960090637207, 6.207230091094971
491, 279072629, -0.5565933585166931, 3.28644061088562, 173.5503692626953, -1.2181347608566284, -1.0778026580810547, 9.552985191345215, 0.47812551259994507, 15.575982093811035, 7.481412887573242
492, 279089296, -0.5072547793388367, 3.6879756450653076, 173.6261749267578, -1.4544094800949097, -1.053389549255371, 9.835280418395996, 2.504594326019287, 23.782466888427734, 4.3195271492004395
493, 279105963, -0.487615704536438, 4.092056751251221, 173.69422912597656, -1.2213326692581177, -1.065342903137207, 9.83422565460205, 0.7325758934020996, 23.93930435180664, 3.8416309356689453
494, 279122630, -0.4132891297340393, 4.455488204956055, 173.73117065429688, -1.5913491249084473, -1.1264740228652954, 9.670785903930664, 4.135881423950195, 21.517379760742188, 1.9402164220809937
495, 279139297, -0.3693072199821472, 4.850964546203613, 173.6334991455078, -1.4901584386825562, -0.8458796739578247, 9.639827728271484, 2.968735694885254, 23.49546241760254, -6.120813846588135
496, 279155964, -0.29557451605796814, 5.272552490234375, 173.37034606933594, -1.0389513969421387, -0.4245721995830536, 9.60931396484375, 5.67933988571167, 25.11078453063965, -16.021005630493164
497, 279172631, -0.2302815318107605, 5.673622131347656, 173.20416259765625, -0.9462462067604065, -0.6230496168136597, 10.245478630065918, 4.7354278564453125, 23.834863662719727, -10.25390911102295
498, 279189298, -0.20711351931095123, 5.95832633972168, 173.02645874023438, -1.0164055824279785, -0.951712429523468, 9.517884254455566, 2.340517520904541, 16.85093879699707, -10.981788635253906
499, 279205965, -0.1792518049478531, 6.201969623565674, 172.9115753173828, -0.9279224276542664, -1.093245029449463, 9.681400299072266, 2.279942035675049, 14.374588966369629, -7.244065284729004
500, 279222632, -0.15851417183876038, 6.412814140319824, 172.80552673339844, -1.169127345085144, -1.082520604133606, 9.577879905700684, 1.8284794092178345, 12.406853675842285, -6.7254204750061035
501, 279239299, -0.17880821228027344, 6.589164733886719, 172.6214141845703, -1.0398927927017212, -1.2199448347091675, 9.770902633666992, -0.0725928470492363, 10.355427742004395, -11.381339073181152
502, 279255966, -0.10138995945453644, 6.816523551940918, 172.2898406982422, -1.0969791412353516, -0.7793689966201782, 9.490778923034668, 6.868676662445068, 13.437042236328125, -20.161317825317383
503, 279272633, -0.11566711962223053, 6.996682167053223, 171.9052734375, -0.9403056502342224, -0.2651495635509491, 9.951563835144043, 1.8258310556411743, 10.604232788085938, -23.32196044921875
504, 279289300, -0.073023721575737, 7.161560535430908, 171.40284729003906, -1.277457356452942, -0.39682725071907043, 9.7218656539917, 6.181122779846191, 9.69709300994873, -30.335124969482422
505, 279305967, -0.0847763866186142, 7.3332037925720215, 170.8232879638672, -1.470241665840149, -0.6665931344032288, 9.549381256103516, 3.591416358947754, 10.104321479797363, -34.91567611694336
506, 279322634, -0.08993146568536758, 7.522995948791504, 170.2757110595703, -1.0409258604049683, -0.733634352684021, 9.703734397888184, 3.853024959564209, 11.195846557617188, -32.99567413330078
507, 279339301, -0.06380923837423325, 7.675837516784668, 169.87435913085938, -1.0371521711349487, -0.8702763915061951, 9.636226654052734, 4.670103549957275, 8.9673490524292, -24.291854858398438
508, 279355968, -0.05505310744047165, 7.831259250640869, 169.50775146484375, -1.1321161985397339, -0.53526371717453, 9.734272003173828, 3.416152000427246, 9.118663787841797, -22.21879768371582
509, 279372635, -0.05084725096821785, 7.933963298797607, 169.14471435546875, -1.1463721990585327, -0.7753638625144958, 9.585360527038574, 3.1645188331604004, 5.957730293273926, -22.004558563232422
510, 279389302, -0.14352001249790192, 7.999215602874756, 168.66949462890625, -1.2300751209259033, -0.4548915922641754, 9.789360046386719, -1.6794488430023193, 3.743396282196045, -28.66352081298828
511, 279405969, -0.21843716502189636, 8.031381607055664, 168.0537567138672, -1.3811135292053223, -0.6582652926445007, 9.636946678161621, 0.587007462978363, 1.8299849033355713, -37.009071350097656
512, 279422636, -0.36122164130210876, 8.016963005065918, 167.35289001464844, -1.1135872602462769, -0.37835225462913513, 9.784975051879883, -2.7629806995391846, -0.866233229637146, -42.07626724243164
513, 279439303, -0.31378650665283203, 8.081104278564453, 166.6287841796875, -1.1779266595840454, -0.6609517335891724, 9.667584419250488, 8.86319637298584, 3.893951892852783, -43.42594909667969
514, 279455970, -0.2870861291885376, 8.212869644165039, 165.9653778076172, -0.9720948934555054, -0.4044380486011505, 9.919109344482422, 7.178833484649658, 7.910682678222656, -39.792808532714844
515, 279472637, -0.3160709738731384, 8.081992149353027, 165.2263641357422, -0.48427990078926086, -0.6038075685501099, 9.33603572845459, 4.480012893676758, -7.817646026611328, -44.36526870727539
516, 279489304, -0.4501294195652008, 8.038227081298828, 164.40773010253906, -0.8655685782432556, -0.6499902606010437, 9.980573654174805, -1.2213712930679321, -2.486457347869873, -49.080711364746094
517, 279505971, -0.48703479766845703, 7.828557014465332, 163.50363159179688, -1.7850427627563477, -1.2288150787353516, 9.762231826782227, 5.207324028015137, -12.318082809448242, -54.25979232788086
518, 279522638, -0.4911808967590332, 7.813632488250732, 162.42050170898438, -1.2540160417556763, -0.779557466506958, 9.472758293151855, 8.536788940429688, -0.5216040015220642, -64.81967163085938
519, 279539305, -0.49247661232948303, 7.726142883300781, 161.1815948486328, -1.0341358184814453, -0.11420454829931259, 9.840188026428223, 9.916460990905762, -4.786730766296387, -74.12480163574219
520, 279555972, -0.5502822399139404, 7.631311416625977, 159.8646697998047, -1.0795609951019287, -0.146470308303833, 9.745705604553223, 7.03068733215332, -5.141203880310059, -78.78638458251953
521, 279572639, -0.4900309145450592, 7.642358303070068, 158.47386169433594, -1.077171802520752, -0.2625247538089752, 9.671635627746582, 14.64188003540039, 1.252671718597412, -83.1306381225586
522, 279589306, -0.5466567873954773, 7.550055980682373, 157.15707397460938, -0.661001980304718, -0.06394071877002716, 9.85330867767334, 6.981240749359131, -4.985243797302246, -78.7926025390625
523, 279605973, -0.6015336513519287, 7.310537815093994, 155.8668670654297, -0.8167114853858948, -0.5037785768508911, 9.751653671264648, 6.647447109222412, -13.74925422668457, -77.33556365966797
524, 279622640, -0.6652280688285828, 7.065258979797363, 154.662353515625, -1.1524426937103271, -0.9227262139320374, 9.74508285522461, 5.149186611175537, -14.064505577087402, -72.2951431274414
525, 279639307, -0.6159343123435974, 7.045109748840332, 153.4342803955078, -1.2412821054458618, -0.8029230833053589, 9.648396492004395, 11.93704605102539, -0.5281634330749512, -73.56964111328125
526, 279655974, -0.5884127020835876, 7.050638198852539, 152.0607452392578, -1.061874508857727, -0.37338927388191223, 9.694707870483398, 11.69455623626709, 1.059046983718872, -82.21432495117188
527, 279672641, -0.6278226375579834, 7.010793209075928, 150.67288208007812, -1.2537246942520142, 0.16689901053905487, 10.049076080322266, 7.757048606872559, -1.6414239406585693, -83.10098266601562
528, 279689308, -0.6442381739616394, 6.984262466430664, 149.2711181640625, -1.468949317932129, -0.03325090557336807, 9.644107818603516, 9.18500804901123, -0.7923679351806641, -83.92565155029297
529, 279705975, -0.6036943197250366, 6.960572242736816, 147.8365020751953, -1.5587571859359741, -0.11073995381593704, 9.759442329406738, 12.80199146270752, -0.6184670925140381, -85.88630676269531
530, 279722642, -0.5745838284492493, 7.011992454528809, 146.47483825683594, -1.4417189359664917, 0.03856309875845909, 9.394868850708008, 11.601062774658203, 3.790808916091919, -81.49041748046875
531, 279739309, -0.5678614377975464, 7.073160648345947, 145.28433227539062, -1.0379151105880737, -0.08591043204069138, 9.594325065612793, 9.076142311096191, 4.247751712799072, -71.28831481933594
532, 279755976, -0.5945004224777222, 6.976231098175049, 144.134521484375, -0.9284462928771973, -0.17145706713199615, 9.796781539916992, 6.750135898590088, -5.246754169464111, -68.9611587524414
533, 279772643, -0.6167184114456177, 6.884389400482178, 143.03094482421875, -0.6050569415092468, -0.07203395664691925, 9.893242835998535, 6.563870429992676, -4.93796968460083, -66.22235870361328
534, 279789310, -0.6784010529518127, 6.750377655029297, 141.95730590820312, -1.2703166007995605, -0.17440925538539886, 9.752081871032715, 3.8486344814300537, -7.434011459350586, -64.48614501953125
535, 279805977, -0.6178736686706543, 6.730685710906982, 140.8822784423828, -1.5744819641113281, -0.02896731160581112, 9.79439926147461, 11.101736068725586, -0.5732656717300415, -64.50157928466797
536, 279822644, -0.553605854511261, 6.825649261474609, 139.79458618164062, -1.4737706184387207, -0.08345143496990204, 9.65854263305664, 11.456636428833008, 6.240849018096924, -65.18091583251953
537, 279839311, -0.5231373906135559, 6.990403652191162, 138.78292846679688, -1.3454999923706055, -0.05311303213238716, 9.66346549987793, 9.024807929992676, 10.329856872558594, -60.60071563720703
538, 279855978, -0.5234016180038452, 7.129997730255127, 137.92434692382812, -1.1573784351348877, -0.06288251280784607, 9.673011779785156, 6.210141181945801, 8.721221923828125, -51.483394622802734
539, 279872645, -0.5349739789962769, 7.155878067016602, 137.08969116210938, -1.057871699333191, -0.3611076772212982, 9.532806396484375, 5.424229145050049, 1.890669584274292, -50.112037658691406
540, 279889312, -0.5474507212638855, 7.128600597381592, 136.12730407714844, -0.7804383039474487, 0.007017152383923531, 9.894371032714844, 6.321353435516357, -1.2123467922210693, -57.74427032470703
541, 279905979, -0.5757985711097717, 7.0150017738342285, 135.24867248535156, -1.1955124139785767, -0.036728471517562866, 9.953459739685059, 4.675683975219727, -6.416808128356934, -52.81820297241211
542, 279922646, -0.6047399640083313, 7.021185874938965, 134.32223510742188, -1.2013667821884155, -0.12805640697479248, 9.8428316116333, 4.93740177154541, 0.8264027833938599, -55.60165786743164
543, 279939313, -0.5489745140075684, 7.099501609802246, 133.3584442138672, -1.2105902433395386, -0.2154293656349182, 9.501875877380371, 10.3344144821167, 5.162814617156982, -57.77739715576172
544, 279955980, -0.5360995531082153, 7.164020538330078, 132.47007751464844, -1.1097702980041504, -0.288089781999588, 9.948001861572266, 7.269432067871094, 4.260268211364746, -53.28947830200195
545, 279972647, -0.5737433433532715, 7.125072956085205, 131.5659637451172, -0.9258165955543518, -0.2053011655807495, 9.241113662719727, 4.365474700927734, -1.9251669645309448, -54.283958435058594
546, 279989314, -0.6427800059318542, 6.910189628601074, 130.82614135742188, -0.6624143719673157, 0.3477135896682739, 9.862274169921875, 1.1567293405532837, -12.532034873962402, -44.631160736083984
547, 280005981, -0.5993835926055908, 6.7667155265808105, 129.95654296875, -1.3086481094360352, -0.6615604162216187, 9.784892082214355, 8.684906959533691, -8.151495933532715, -52.33450698852539
548, 280022648, -0.5733639001846313, 6.747300148010254, 128.76699829101562, -0.9768742322921753, -0.23918944597244263, 9.912979125976562, 9.828604698181152, -0.5432616472244263, -71.3245849609375
549, 280039315, -0.5908098816871643, 6.784046649932861, 127.37246704101562, -1.025580644607544, -0.046466704457998276, 10.010751724243164, 8.677836418151855, 2.9475185871124268, -83.50182342529297
550, 280055982, -0.5532219409942627, 6.842100143432617, 125.97269439697266, -1.0527149438858032, -0.4037935137748718, 9.359586715698242, 12.080931663513184, 4.215456962585449, -83.79425048828125
551, 280072649, -0.5496657490730286, 6.881831645965576, 124.72740936279297, -1.056790828704834, -0.15565069019794464, 9.699037551879883, 9.002121925354004, 3.000715970993042, -74.59685516357422
552, 280089316, -0.5658211708068848, 6.864118576049805, 123.53746795654297, -1.29948890209198, 0.07661992311477661, 9.717019081115723, 7.4330949783325195, -0.46898353099823, -71.33052825927734
553, 280105983, -0.5443975329399109, 6.87785005569458, 122.3509521484375, -0.9939314723014832, -0.10966172814369202, 9.88527774810791, 9.656853675842285, 1.410273551940918, -71.10848999023438
554, 280122650, -0.5117925405502319, 6.840513706207275, 121.22501373291016, -0.8728496432304382, -0.39981552958488464, 9.66296672821045, 9.8760986328125, -1.7167640924453735, -67.53274536132812
555, 280139317, -0.6124712824821472, 6.816366672515869, 119.00244140625, -0.5742693543434143, -0.2594949007034302, 9.68358325958252, 9.66384220123291, -0.2422793060541153, -132.8566436767578
556, 280155984, -0.7368329763412476, 6.79217004776001, 116.13526153564453, -0.50620037317276, -0.0019398331642150879, 10.053842544555664, 12.763188362121582, 0.4729749262332916, -171.26412963867188
557, 280172651, -0.9443842172622681, 6.824604511260986, 113.28275299072266, -1.1793819665908813, 0.12802758812904358, 9.709100723266602, 7.670816421508789, 4.356385707855225, -170.33773803710938
558, 280189318, -1.0216349363327026, 6.963123321533203, 110.37201690673828, -1.4201289415359497, -0.11735840141773224, 9.929632186889648, 16.151071548461914, 11.199360847473145, -173.65438842773438
559, 280205985, -0.987868070602417, 7.072869300842285, 107.75177764892578, -1.3013569116592407, 0.2160818874835968, 9.46859073638916, 21.050945281982422, 9.233575820922852, -156.34051513671875
560, 280222652, -1.0020040273666382, 7.170292377471924, 105.2954330444336, -1.3218625783920288, 0.022252390161156654, 9.778501510620117, 17.231821060180664, 8.294939994812012, -146.56399536132812
561, 280239319, -1.0639703273773193, 7.276881694793701, 102.96615600585938, -1.1359411478042603, 0.5245052576065063, 9.74619197845459, 13.658004760742188, 8.802475929260254, -138.95408630371094
562, 280255986, -1.1720685958862305, 7.306908130645752, 100.9223403930664, -0.4870264232158661, 0.14416435360908508, 9.41215705871582, 8.871952056884766, 4.081790447235107, -122.02503204345703
563, 280272653, -1.13825261592865, 7.2993669509887695, 99.02246856689453, -0.9888752698898315, 0.08566349744796753, 10.0180082321167, 16.302621841430664, 1.7366596460342407, -113.49900817871094
564, 280289320, -1.0756325721740723, 7.370449542999268, 97.19855499267578, -1.1067415475845337, 0.4546441435813904, 9.668285369873047, 17.505033493041992, 6.26959228515625, -108.88406372070312
565, 280305987, -1.0776031017303467, 7.447967052459717, 95.57782745361328, -1.6058109998703003, 0.6031225919723511, 9.848286628723145, 12.19095230102539, 6.3683624267578125, -96.77682495117188
566, 280322654, -1.0370012521743774, 7.6140031814575195, 94.0840835571289, -1.0384091138839722, -0.07081706821918488, 9.622102737426758, 13.943909645080566, 11.49975872039795, -89.104248046875
567, 280339321, -1.001218318939209, 7.8342413902282715, 92.7610092163086, -1.1766380071640015, 0.7638551592826843, 9.84091567993164, 12.57364273071289, 14.509828567504883, -78.86836242675781
568, 280355988, -0.975753128528595, 7.87502384185791, 91.4975814819336, -1.4922670125961304, 0.32941097021102905, 9.6487398147583, 11.636268615722656, 3.638422966003418, -75.49295806884766
569, 280372655, -0.9319164752960205, 7.943452835083008, 90.03407287597656, -1.268855094909668, 0.4530588388442993, 9.73027515411377, 14.456631660461426, 5.444015026092529, -87.34904479980469
570, 280389322, -0.9393099546432495, 7.982426166534424, 88.56385040283203, -1.4148205518722534, 0.7368924617767334, 9.77403450012207, 11.514378547668457, 3.653470277786255, -87.76943969726562
571, 280405989, -0.9149838089942932, 8.044389724731445, 87.12503814697266, -1.3702346086502075, -0.12514159083366394, 9.648564338684082, 13.222421646118164, 4.983250141143799, -85.8690414428711
572, 280422656, -0.9235329627990723, 7.969039440155029, 85.88114929199219, -1.749742865562439, 0.21508125960826874, 9.430033683776855, 9.610023498535156, -3.4531660079956055, -74.4256591796875
573, 280439323, -0.9700872898101807, 7.4839630126953125, 84.54727172851562, -1.4866570234298706, 0.48362433910369873, 9.345147132873535, 7.691268444061279, -27.91415786743164, -80.23233795166016
574, 280455990, -1.0696825981140137, 6.554003715515137, 83.49115753173828, -1.3342640399932861, -0.1652829945087433, 9.713544845581055, 1.4869569540023804, -54.79677963256836, -64.33145141601562
575, 280472657, -1.1319868564605713, 5.8836846351623535, 82.8413314819336, -1.1152557134628296, -0.28457048535346985, 9.907942771911621, 0.2036232054233551, -39.598907470703125, -39.98101043701172
576, 280489324, -1.2039483785629272, 5.288815975189209, 82.390625, -0.9181358218193054, -0.15344712138175964, 9.557209968566895, -1.9654237031936646, -35.26827621459961, -28.090805053710938
577, 280505991, -1.34055757522583, 4.1146016120910645, 81.49374389648438, -0.6028947830200195, -0.02442244067788124, 9.508614540100098, -4.066865921020508, -69.37733459472656, -55.63348388671875
578, 280522658, -1.4497994184494019, 2.8379740715026855, 80.35614776611328, -0.5849831700325012, -0.2168024182319641, 9.823328018188477, -2.7001595497131348, -75.04808807373047, -70.425537109375
579, 280539325, -1.5708760023117065, 1.2015252113342285, 79.14161682128906, -0.6519975662231445, -0.12057504057884216, 9.42273235321045, -4.981582164764404, -96.36509704589844, -75.83958435058594
580, 280555992, -1.508414626121521, 0.22757498919963837, 78.3058090209961, 0.3028586506843567, -0.9947829842567444, 10.8866548538208, 4.085989952087402, -57.20875930786133, -52.14310073852539
581, 280572659, -1.4111778736114502, -0.09835823625326157, 78.0739974975586, -0.1523512601852417, -0.47441086173057556, 9.430266380310059, 5.566163539886475, -19.33274269104004, -14.847450256347656
582, 280589326, -1.4348671436309814, -0.0643063485622406, 77.91211700439453, 0.3081614375114441, -0.3791005313396454, 10.102937698364258, -1.7164804935455322, 2.145576238632202, -10.103297233581543
583, 280605993, -1.4574248790740967, -0.05303119868040085, 77.86470031738281, 0.1458396464586258, -0.3195374011993408, 9.813161849975586, -1.6370550394058228, 0.6114264130592346, -3.272285223007202
584, 280622660, -1.4942880868911743, -0.06355807185173035, 77.78864288330078, 0.07528579980134964, -0.37939801812171936, 9.82182502746582, -2.4970781803131104, -0.6489938497543335, -5.02183723449707
585, 280639327, -1.533510684967041, -0.1130315512418747, 77.5431137084961, 0.12390489131212234, -0.31589701771736145, 9.788196563720703, -2.6547908782958984, -2.7129316329956055, -15.251523971557617
586, 280655994, -1.579419732093811, -0.12272029370069504, 77.30123138427734, -0.0859559029340744, -0.38292691111564636, 9.781659126281738, -3.0628395080566406, -0.3210362493991852, -14.967350959777832
587, 280672661, -1.580284833908081, -0.13080890476703644, 77.15764617919922, -0.20022521913051605, -0.43748289346694946, 9.732715606689453, -0.3483520448207855, -0.3825834095478058, -9.069939613342285
588, 280689328, -1.5256547927856445, -0.13930323719978333, 76.7623519897461, -0.06978286802768707, -0.3745347261428833, 9.73055362701416, 2.946772575378418, -0.0025036465376615524, -24.16683006286621
589, 280705995, -1.4462131261825562, -0.14205190539360046, 76.34080505371094, 0.05774015188217163, -0.3030823767185211, 9.795510292053223, 4.4296369552612305, 0.354096382856369, -25.73392677307129
590, 280722662, -1.3927558660507202, -0.1415090262889862, 75.9834213256836, 0.18371710181236267, -0.30562224984169006, 9.802989959716797, 2.8796534538269043, 0.42572224140167236, -21.87865447998047
591, 280739329, -1.3364886045455933, -0.14095833897590637, 75.61829376220703, 0.04107106104493141, -0.3190290331840515, 9.819677352905273, 3.0489284992218018, 0.4182945191860199, -22.344703674316406
592, 280755996, -1.3130135536193848, -0.14096352458000183, 75.2602310180664, 0.13566595315933228, -0.3907575011253357, 9.83501148223877, 1.0818309783935547, 0.3595900535583496, -21.923398971557617
593, 280772663, -1.294265627861023, -0.14157824218273163, 74.87755584716797, 0.00812925398349762, -0.428092896938324, 9.770858764648438, 0.7957367897033691, 0.3494347035884857, -23.400066375732422
594, 280789330, -1.2722179889678955, -0.13489022850990295, 74.48023223876953, 0.13645929098129272, -0.41698184609413147, 9.767027854919434, 0.9942102432250977, 0.7985799908638, -24.26897430419922
595, 280805997, -1.2596505880355835, -0.1020398736000061, 74.0044174194336, 0.10282082110643387, -0.32362499833106995, 9.83651351928711, 0.4258507788181305, 2.4657418727874756, -28.94207000732422
596, 280822664, -1.235761284828186, -0.09973020106554031, 73.74459838867188, 0.1283130943775177, -0.16954483091831207, 9.74502182006836, 1.135936975479126, 0.34246769547462463, -16.027576446533203
